Geotek MSCL 7.9 - Alcal_12016_almostopen.raw created at 12:29:01 on 1/20/2016.


Core Depth	Section	Sect Depth	A Gamma  
m		cm	cps

0.000	1	0.00	1997
0.003	1	0.30	1997
0.006	1	0.60	1966
0.009	1	0.90	1924
0.012	1	1.20	1925
0.015	1	1.50	1926
0.018	1	1.80	1941
0.021	1	2.10	1914
0.024	1	2.40	1939
0.027	1	2.70	1949
0.030	1	3.00	1913
0.033	1	3.30	1952
0.036	1	3.60	1919
0.039	1	3.90	1901
0.042	1	4.20	1928
0.045	1	4.50	1943
0.048	1	4.80	1895
0.051	1	5.10	1871
0.054	1	5.40	1871
0.057	1	5.70	1894
0.060	1	6.00	1887
0.063	1	6.30	1910
0.066	1	6.60	1921
0.069	1	6.90	1919
0.072	1	7.20	1932
0.075	1	7.50	1901
0.078	1	7.80	1928
0.081	1	8.10	1945
0.084	1	8.40	1977
0.087	1	8.70	1952
0.090	1	9.00	1953
0.093	1	9.30	1978
0.096	1	9.60	1954
0.099	1	9.90	1955
0.102	1	10.20	1982
0.105	1	10.50	1992
0.108	1	10.80	1989
0.111	1	11.10	1981
0.114	1	11.40	1984
0.117	1	11.70	1955
0.120	1	12.00	1943
0.123	1	12.30	2003
0.126	1	12.60	1983
0.129	1	12.90	1953
0.132	1	13.20	1988
0.135	1	13.50	2010
0.138	1	13.80	1945
0.141	1	14.10	1985
0.144	1	14.40	2009
0.147	1	14.70	1990
0.150	1	15.00	1990
0.153	1	15.30	1955
0.156	1	15.60	1966
0.159	1	15.90	1969
0.162	1	16.20	1979
0.165	1	16.50	1957
0.168	1	16.80	1958
0.171	1	17.10	1957
0.174	1	17.40	1936
0.177	1	17.70	1893
0.180	1	18.00	1971
0.183	1	18.30	1990
0.186	1	18.60	1967
0.189	1	18.90	2010
0.192	1	19.20	2015
0.195	1	19.50	1986
0.198	1	19.80	1976
0.201	1	20.10	1768
0.204	1	20.40	1571
0.207	1	20.70	1551
0.210	1	21.00	1558
0.213	1	21.30	1526
0.216	1	21.60	1558
0.219	1	21.90	1590
0.222	1	22.20	1531
0.225	1	22.50	1525
0.228	1	22.80	1494
0.231	1	23.10	1487
0.234	1	23.40	1479
0.237	1	23.70	1465
0.240	1	24.00	1498
0.243	1	24.30	1570
0.246	1	24.60	1653
0.249	1	24.90	1715
0.252	1	25.20	1692
0.255	1	25.50	1714
0.258	1	25.80	1698
0.261	1	26.10	1721
0.264	1	26.40	1743
0.267	1	26.70	1706
0.270	1	27.00	1728
0.273	1	27.30	1656
0.276	1	27.60	1636
0.279	1	27.90	1532
0.282	1	28.20	1491
0.285	1	28.50	1486
0.288	1	28.80	1485
0.291	1	29.10	1470
0.294	1	29.40	1463
0.297	1	29.70	1482
0.300	1	30.00	1459
0.303	1	30.30	1468
0.306	1	30.60	1420
0.309	1	30.90	1342
0.312	1	31.20	1308
0.315	1	31.50	1304
0.318	1	31.80	1322
0.321	1	32.10	1294
0.324	1	32.40	1322
0.327	1	32.70	1304
0.330	1	33.00	1278
0.333	1	33.30	1337
0.336	1	33.60	1278
0.339	1	33.90	1204
0.342	1	34.20	1183
0.345	1	34.50	1176
0.348	1	34.80	1164
0.351	1	35.10	1195
0.354	1	35.40	1171
0.357	1	35.70	1153
0.360	1	36.00	1177
0.363	1	36.30	1166
0.366	1	36.60	1160
0.369	1	36.90	1092
0.372	1	37.20	1029
0.375	1	37.50	1031
0.378	1	37.80	1070
0.381	1	38.10	1047
0.384	1	38.40	1038
0.387	1	38.70	1047
0.390	1	39.00	1045
0.393	1	39.30	1064
0.396	1	39.60	1025
0.399	1	39.90	967
0.402	1	40.20	931
0.405	1	40.50	925
0.408	1	40.80	928
0.411	1	41.10	916
0.414	1	41.40	930
0.417	1	41.70	941
0.420	1	42.00	954
0.423	1	42.30	941
0.426	1	42.60	915
0.429	1	42.90	909
0.432	1	43.20	853
0.435	1	43.50	844
0.438	1	43.80	860
0.441	1	44.10	852
0.444	1	44.40	847
0.447	1	44.70	856
0.450	1	45.00	847
0.453	1	45.30	854
0.456	1	45.60	865
0.459	1	45.90	822
0.462	1	46.20	775
0.465	1	46.50	778
0.468	1	46.80	782
0.471	1	47.10	764
0.474	1	47.40	763
0.477	1	47.70	763
0.480	1	48.00	763
0.483	1	48.30	759
0.486	1	48.60	782
0.489	1	48.90	734
0.492	1	49.20	707
0.495	1	49.50	664
0.498	1	49.80	663
0.501	1	50.10	697
0.504	1	50.40	686
0.507	1	50.70	676
0.510	1	51.00	702
0.513	1	51.30	704
0.516	1	51.60	683
0.519	1	51.90	671
0.522	1	52.20	707
0.525	1	52.50	694
0.528	1	52.80	668
0.531	1	53.10	697
0.534	1	53.40	679
0.537	1	53.70	665
0.540	1	54.00	691
0.543	1	54.30	672
0.546	1	54.60	676
0.549	1	54.90	693
0.552	1	55.20	723
0.555	1	55.50	908
0.558	1	55.80	1506
0.561	1	56.10	1998
0.564	1	56.40	1998
0.567	1	56.70	2024
0.570	1	57.00	2049
0.573	1	57.30	2021
0.576	1	57.60	2027
0.579	1	57.90	2036
0.582	1	58.20	1968
0.585	1	58.50	2026
0.588	1	58.80	2002
0.591	1	59.10	2014
0.594	1	59.40	1915
0.597	1	59.70	1755
0.600	1	60.00	1851
0.603	1	60.30	1909
0.606	1	60.60	1960
0.609	1	60.90	1981
0.612	1	61.20	1952
0.615	1	61.50	1934
0.618	1	61.80	1925
0.621	1	62.10	1923
0.624	1	62.40	1891
0.627	1	62.70	1931
0.630	1	63.00	1922
0.633	1	63.30	1933
0.636	1	63.60	1881
0.639	1	63.90	1906
0.642	1	64.20	1895
0.645	1	64.50	1895
0.648	1	64.80	1929
0.651	1	65.10	1901
0.654	1	65.40	1883
0.657	1	65.70	1890
0.660	1	66.00	1919
0.663	1	66.30	1889
0.666	1	66.60	1911
0.669	1	66.90	1913
0.672	1	67.20	1899
0.675	1	67.50	1912
0.678	1	67.80	1928
0.681	1	68.10	1934
0.684	1	68.40	1920
0.687	1	68.70	1948
0.690	1	69.00	1944
0.693	1	69.30	1909
0.696	1	69.60	1905
0.699	1	69.90	1952
0.702	1	70.20	1898
0.705	1	70.50	2044
0.708	1	70.80	2634
0.711	1	71.10	4012
0.714	1	71.40	4722
0.717	1	71.70	4795
