Geotek MSCL 7.9 - TN336_BB35-40.raw created at 8:23:44 on 1/25/2016.											Geotek MSCL 7.9 - TN336_BB35-40_redo.out created at 14:13:59 on 1/25/2016.											
																						
																						
Core Depth	Section	Sect Depth	CTD 	Tr. Time 	PW Amp   	A Gamma  	Mag Sus  	Temp     	NC Res   		SB DEPTH	SECT NUM	SECT DEPTH	CT	PWAmp	PWVel	Den1	MS1	MS1	Imp	FP	RES
m		cm	mm	µsec		cps	SI x 10^-5	°C	mV		m		cm	cm		m/s	g/cc	SI x 10^-5	x 10^-8 (m^3/kg)			Ohm.m
																						
0.001	1	0.1	6.32	999	0	6742	16	17.86	282		0.001	1	0.1	10.812	0	111.1694	1.0768	13.2018	12.2606	119.7037	0.9706	1.1759
0.011	1	1.1	5.92	96.87	0.0002	5062	20	17.86	339.2		0.011	1	1.1	10.772	0.0002	1529.245	1.4269	16.6781	11.688	2182.146	0.7674	0.9636
0.021	1	2.1	5.86	97.58	0.0046	4975	22	17.85	439.6		0.021	1	2.1	10.766	0.0046	1513.141	1.4495	18.3752	12.6769	2193.29	0.7544	0.7287
0.031	1	3.1	5.92	96.94	0.0014	4941	24	17.87	537.8		0.031	1	3.1	10.772	0.0014	1527.726	1.4573	20.0137	13.7333	2226.379	0.7498	0.5865
0.041	1	4.1	5.76	97.95	0.0007	5054	24	17.89	607.2		0.041	1	4.1	10.756	0.0007	1503.915	1.431	20.099	14.0449	2152.176	0.7651	0.5146
0.051	1	5.1	2	94.69	0.0027	4980	26	17.88	652		0.051	1	5.1	10.38	0.0027	1520.656	1.5021	24.1147	16.0541	2284.157	0.7238	0.4766
0.061	1	6.1	1.28	95.17	0.0054	5045	25	17.88	674.8		0.061	1	6.1	10.308	0.0054	1499.564	1.4956	23.6567	15.8178	2242.712	0.7276	0.4593
0.071	1	7.1	0.76	95.02	0.0022	5128	26	17.87	686.4		0.071	1	7.1	10.256	0.0022	1495.262	1.4817	24.9642	16.8479	2215.587	0.7357	0.4509
0.081	1	8.1	0.59	94.9	0.0137	5092	25	17.88	694.3		0.081	1	8.1	10.239	0.0137	1495.399	1.4935	24.1191	16.1499	2233.306	0.7289	0.4454
0.091	1	9.1	0.58	94.62	0.0188	5065	25	17.88	703.1		0.091	1	9.1	10.238	0.0188	1501.393	1.5006	24.1259	16.0776	2252.977	0.7247	0.4394
0.101	1	10.1	0.63	94.56	0.031	4863	25	17.88	709.8		0.101	1	10.1	10.243	0.031	1503.449	1.5537	24.092	15.5062	2335.904	0.6939	0.4349
0.111	1	11.1	0.58	94.6	0.0356	4807	25	17.88	713		0.111	1	11.1	10.238	0.0356	1501.834	1.5699	24.1259	15.3679	2357.714	0.6845	0.4328
0.121	1	12.1	0.53	94.81	0.0278	4888	25	17.88	712.8		0.121	1	12.1	10.233	0.0278	1496.49	1.5484	24.16	15.6032	2317.155	0.697	0.433
0.131	1	13.1	0.53	94.96	0.0267	4970	24	17.89	709.9		0.131	1	13.1	10.233	0.0267	1493.215	1.5263	23.1936	15.1957	2279.129	0.7098	0.4349
0.141	1	14.1	0.53	95.08	0.0262	5009	23	17.89	711.5		0.141	1	14.1	10.233	0.0262	1490.604	1.516	22.2272	14.6618	2259.74	0.7158	0.4338
0.151	1	15.1	0.47	95.16	0.0301	5023	23	17.89	715.5		0.151	1	15.1	10.227	0.0301	1487.996	1.5132	22.2648	14.7138	2251.622	0.7174	0.4311
0.161	1	16.1	0.47	95.14	0.0324	5061	23	17.89	720.5		0.161	1	16.1	10.227	0.0324	1488.43	1.5032	22.2648	14.8111	2237.476	0.7232	0.428
0.171	1	17.1	0.48	95.24	0.0403	5062	22	17.89	724.4		0.171	1	17.1	10.228	0.0403	1486.412	1.5028	21.2908	14.167	2233.838	0.7234	0.4255
0.181	1	18.1	0.52	95.28	0.0287	5070	22	17.89	725.5		0.181	1	18.1	10.232	0.0287	1486.129	1.5002	21.2668	14.1762	2229.449	0.725	0.4248
0.191	1	19.1	0.58	95.33	0.0286	4997	21	17.9	728.2		0.191	1	19.1	10.238	0.0286	1485.922	1.5184	20.2658	13.3467	2256.247	0.7144	0.4231
0.201	1	20.1	0.63	95.31	0.022	5002	21	17.9	721.3		0.201	1	20.1	10.243	0.022	1487.079	1.5164	20.2373	13.346	2254.939	0.7156	0.4275
0.211	1	21.1	0.68	95.33	0.0219	5023	22	17.89	718.5		0.211	1	21.1	10.248	0.0219	1487.373	1.5101	21.1711	14.0198	2246.067	0.7192	0.4293
0.221	1	22.1	0.74	95.26	0.0242	5013	21	17.89	712.3		0.221	1	22.1	10.254	0.0242	1489.757	1.5118	20.1747	13.3446	2252.263	0.7182	0.4333
0.231	1	23.1	0.84	95.25	0.0252	4958	22	17.9	706.9		0.231	1	23.1	10.264	0.0252	1491.427	1.5249	21.0761	13.8213	2274.285	0.7106	0.4368
0.241	1	24.1	0.93	95.31	0.0212	4862	22	17.9	678.4		0.241	1	24.1	10.273	0.0212	1491.434	1.5494	21.0229	13.5682	2310.876	0.6964	0.4566
0.251	1	25.1	0.96	95.4	0.0213	4846	23	17.91	675.2		0.251	1	25.1	10.276	0.0213	1489.923	1.5534	21.96	14.1372	2314.374	0.6941	0.459
0.261	1	26.1	1.08	95.26	0.0192	4931	22	17.91	672.9		0.261	1	26.1	10.288	0.0192	1494.697	1.5285	20.9347	13.6958	2284.714	0.7085	0.4606
0.271	1	27.1	0.9	95.34	0.0263	4898	22	17.9	674.3		0.271	1	27.1	10.27	0.0263	1490.35	1.5401	21.0406	13.6618	2295.3	0.7018	0.4596
0.281	1	28.1	1.02	95.5	0.0203	4937	22	17.9	672.8		0.281	1	28.1	10.282	0.0203	1488.635	1.5278	20.9699	13.7253	2274.386	0.7089	0.4607
0.291	1	29.1	1.1	95.48	0.0183	4920	23	17.91	677.6		0.291	1	29.1	10.29	0.0183	1490.224	1.5312	21.874	14.2856	2281.826	0.707	0.4572
0.301	1	30.1	1.09	95.29	0.0159	4872	23	17.91	673.4		0.301	1	30.1	10.289	0.0159	1494.191	1.5443	21.8801	14.1683	2307.483	0.6994	0.4603
0.311	1	31.1	1.49	95.38	0.0181	4870	22	17.91	641.8		0.311	1	31.1	10.329	0.0181	1498.042	1.5389	20.6962	13.449	2305.282	0.7025	0.4848
0.321	1	32.1	1.38	95.61	0.0176	4872	23	17.91	636.6		0.321	1	32.1	10.318	0.0176	1491.471	1.54	21.7034	14.0935	2296.809	0.7019	0.489
0.331	1	33.1	1.32	95.13	0.0062	4882	22	17.91	634.3		0.331	1	33.1	10.312	0.0062	1501.019	1.5382	20.7946	13.5192	2308.794	0.7029	0.4909
0.341	1	34.1	1.85	95.68	0.0119	4849	22	17.91	632.3		0.341	1	34.1	10.365	0.0119	1496.751	1.5392	20.4899	13.312	2303.798	0.7023	0.4926
0.351	1	35.1	3.85	96.61	0.0006	4903	23	17.92	623.7		0.351	1	35.1	10.565	0.0006	1505.415	1.4958	20.2762	13.5555	2251.787	0.7275	0.4999
0.361	1	36.1	3.58	96.85	0.0013	4856	23	17.92	608.7		0.361	1	36.1	10.538	0.0013	1496.45	1.5121	20.4257	13.5085	2262.729	0.7181	0.5132
0.371	1	37.1	3.75	999	0	4755	23	17.92	582.4		0.371	1	37.1	10.555	0.00145	1502.247	1.5368	20.3314	13.2293	166.7888	0.7037	0.5383
0.381	1	38.1	3.19	96.05	0.0016	4741	23	17.92	546.2		0.381	1	38.1	10.499	0.0016	1508.044	1.5489	20.6443	13.3285	2335.795	0.6967	0.5768
0.391	1	39.1	2.89	95.4	0.0011	4697	23	17.92	497.7		0.391	1	39.1	10.469	0.0011	1517.906	1.5656	20.8148	13.2954	2376.374	0.687	0.6376
0.401	1	40.1	2.77	95.63	0.0089	4648	22	17.91	429.8		0.401	1	40.1	10.457	0.0089	1511.127	1.5812	19.9755	12.6334	2389.344	0.678	0.7467
0.411	1	41.1	2.58	95.54	0.006	4565	20	17.92	340.5		0.411	1	41.1	10.438	0.006	1510.346	1.6079	18.2548	11.3531	2428.496	0.6625	0.9597
0.421	1	42.1	5.04	96.5	0.0021	4621	18	17.93	246.6		0.421	1	42.1	10.684	0.0021	1524.761	1.5551	15.3668	9.8816	2371.151	0.6931	1.3585
0.431	1	43.1	6.34	999	0	4761	16	17.94	183.6		0.431	1	43.1	10.814	0	111.1899	1.4984	13.1949	8.8057	166.6111	0.726	1.8669
0.441	2	0.23	6.73	999	0	11773	13	17.93	161.6		0.441	2	0.2	10.853	0	111.5909	0.4631	10.6111	22.9117	51.6813	1.3265	2.142
0.451	2	1.23	7.07	999	0	14521	11	17.93	167.3		0.451	2	1.2	10.887	0	111.9405	0.2491	8.8988	35.7195	27.8878	1.4506	2.064
0.461	2	2.23	7.92	999	0	14286	11	17.93	188.4		0.461	2	2.2	10.972	0	112.8145	0.2633	8.7036	33.0519	29.7076	1.4424	1.8157
0.471	2	3.23	7.89	999	0	9721	12	17.93	214.5		0.471	2	3.2	10.969	0	112.7837	0.6579	9.5022	14.4425	74.2043	1.2135	1.5792
0.481	2	4.23	7.37	999	0	6963	14	17.94	252		0.481	2	4.2	10.917	0	112.249	1.0294	11.2372	10.9163	115.5486	0.998	1.3274
0.491	2	5.23	3.07	999	0	6039	15	17.94	308.3		0.491	2	5.2	10.487	0	107.8277	1.2439	13.508	10.8597	134.1232	0.8736	1.0682
0.501	2	6.23	2.09	999	0	6055	17	17.94	371.5		0.501	2	6.2	10.389	0	106.8201	1.2523	15.728	12.5592	133.7723	0.8687	0.8737
0.511	2	7.23	0.7	999	0	5976	17	17.94	425.1		0.511	2	7.2	10.25	0	105.3909	1.2858	16.3503	12.7157	135.5159	0.8493	0.7556
0.521	2	8.23	0.53	145.63	0	6006	18	17.94	466.4		0.521	2	8.2	10.233	0	858.4731	1.2817	17.3952	13.5725	1100.264	0.8517	0.6838
0.531	2	9.23	0.53	121.38	0.0002	6051	18	17.95	487		0.531	2	9.2	10.233	0.0002	1077.725	1.2722	17.3952	13.6729	1371.123	0.8572	0.6526
0.541	2	10.23	0.48	121.35	0.0003	5894	19	17.93	493.8		0.541	2	10.2	10.228	0.0003	1077.539	1.3061	18.3875	14.0781	1407.38	0.8375	0.6429
0.551	2	11.23	0.42	121.27	0.0004	5725	19	17.94	497		0.551	2	11.2	10.222	0.0004	1077.815	1.3439	18.4186	13.705	1448.512	0.8156	0.6385
0.561	2	12.23	0.48	121.23	0.0003	5845	19	17.94	498.2		0.561	2	12.2	10.228	0.0003	1078.903	1.3167	18.3875	13.9647	1420.6	0.8314	0.6368
0.571	2	13.23	0.49	120.51	0.0005	5734	19	17.94	497.2		0.571	2	13.2	10.229	0.0005	1087.266	1.341	18.3823	13.7078	1458.031	0.8173	0.6382
0.581	2	14.23	0.42	120.43	0.0005	5670	20	17.94	501.1		0.581	2	14.2	10.222	0.0005	1087.447	1.3563	19.388	14.2949	1474.892	0.8084	0.6329
0.591	2	15.23	0.5	120.93	0.0004	5552	21	17.95	505.1		0.591	2	15.2	10.23	0.0004	1082.54	1.3822	20.3115	14.6948	1496.315	0.7934	0.6274
0.601	2	16.23	0.47	121.18	0.0004	5539	22	17.95	509.4		0.601	2	16.2	10.227	0.0004	1079.367	1.3857	21.2968	15.3695	1495.625	0.7914	0.6218
0.611	2	17.23	0.51	121.55	0.0002	5592	22	17.96	510.5		0.611	2	17.2	10.231	0.0002	1075.589	1.3729	21.2727	15.4952	1476.633	0.7988	0.6203
0.621	2	18.23	0.59	121.35	0.0002	5462	23	17.96	509.4		0.621	2	18.2	10.239	0.0002	1078.698	1.4021	22.1896	15.8263	1512.411	0.7819	0.6218
0.631	2	19.23	0.6	121.36	0.0002	5534	24	17.95	511.1		0.631	2	19.2	10.24	0.0002	1078.69	1.3851	23.1479	16.7126	1494.043	0.7917	0.6195
0.641	2	20.23	0.63	121.82	0.0002	5510	25	17.96	510.2		0.641	2	20.2	10.243	0.0002	1073.802	1.3902	24.092	17.3293	1492.845	0.7887	0.6207
0.651	2	21.23	0.71	121.56	0.0001	5487	25	17.96	511.1		0.651	2	21.2	10.251	0.0001	1077.578	1.3945	24.0378	17.237	1502.729	0.7862	0.6196
0.661	2	22.23	0.69	121.48	0.0001	5279	26	17.96	510.2		0.661	2	22.2	10.249	0.0001	1078.275	1.4449	25.0134	17.3121	1557.946	0.757	0.6207
0.671	2	23.23	0.73	126.43	0.0001	5169	26	17.96	507.4		0.671	2	23.2	10.253	0.0001	1025.3	1.4717	24.9853	16.9766	1508.984	0.7414	0.6244
0.681	2	24.23	0.81	126.59	0.0001	5222	26	17.96	502.2		0.681	2	24.2	10.261	0.0001	1024.461	1.4573	24.9291	17.1065	1492.936	0.7498	0.6313
0.691	2	25.23	0.78	119.05	0.0001	5241	27	17.96	496.9		0.691	2	25.2	10.258	0.0001	1107.536	1.453	25.9098	17.8321	1609.232	0.7523	0.6386
0.701	2	26.23	0.77	119.84	0.0001	5090	26	17.96	494.6		0.701	2	26.2	10.257	0.0001	1098.062	1.4913	24.9572	16.7347	1637.591	0.7301	0.6418
0.711	2	27.23	0.82	119.51	0.0001	4730	26	17.96	497.2		0.711	2	27.2	10.262	0.0001	1102.492	1.5878	24.9221	15.6963	1750.502	0.6741	0.6382
0.721	2	28.23	0.86	119.35	0.0001	4615	26	17.96	502.5		0.721	2	28.2	10.266	0.0001	1104.821	1.6202	24.8941	15.3652	1789.992	0.6554	0.6309
0.731	2	29.23	0.87	119.01	0.0001	4673	27	17.98	509.2		0.731	2	29.2	10.267	0.0001	1108.987	1.6032	25.8444	16.1202	1777.958	0.6652	0.622
0.741	2	30.23	0.86	130.09	0.0001	5167	26	17.97	513.1		0.741	2	30.2	10.266	0.0001	990.3531	1.4704	24.8941	16.9303	1456.205	0.7422	0.617
0.751	2	31.23	0.81	129.94	0.0001	5086	26	17.97	511.2		0.751	2	31.2	10.261	0.0001	991.3051	1.4918	24.9291	16.7108	1478.825	0.7298	0.6194
0.761	2	32.23	0.86	117.11	0.0002	5118	26	17.96	515.2		0.761	2	32.2	10.266	0.0002	1132.113	1.4829	24.8941	16.788	1678.754	0.735	0.6143
0.771	2	33.23	0.96	120.45	0.0002	5061	25	17.96	517		0.771	2	33.2	10.276	0.0002	1092.959	1.4961	23.8696	15.9548	1635.152	0.7273	0.612
0.781	2	34.23	0.81	120.63	0.0001	5102	25	17.97	521.2		0.781	2	34.2	10.261	0.0001	1089.278	1.4877	23.9703	16.1126	1620.493	0.7322	0.6067
0.791	2	35.23	0.81	120.66	0.0002	5068	25	17.97	521.1		0.791	2	35.2	10.261	0.0002	1088.931	1.4965	23.9703	16.0181	1629.531	0.7271	0.6068
0.801	2	36.23	0.98	117.51	0.0003	5100	25	17.98	518.2		0.801	2	36.2	10.278	0.0003	1128.458	1.4857	23.8562	16.0569	1676.583	0.7333	0.6105
0.811	2	37.23	0.92	120.98	0.0002	5069	25	17.98	513.7		0.811	2	37.2	10.272	0.0002	1086.409	1.4946	23.8964	15.9886	1623.735	0.7282	0.6162
0.821	2	38.23	0.97	117.42	0.0002	5008	26	17.98	508.9		0.821	2	38.2	10.277	0.0002	1129.465	1.5098	24.8174	16.438	1705.222	0.7194	0.6225
0.831	2	39.23	1.07	112.12	0.0003	4975	26	17.98	503.8		0.831	2	39.2	10.287	0.0003	1200.49	1.517	24.7479	16.3139	1821.129	0.7152	0.6292
0.841	2	40.23	1.03	116.9	0.0002	4893	27	17.98	495.5		0.841	2	40.2	10.283	0.0002	1136.62	1.5395	25.7286	16.7122	1749.84	0.7021	0.6406
0.851	2	41.23	0.99	111.81	0.0003	4774	27	17.98	486.5		0.851	2	41.2	10.279	0.0003	1203.912	1.5728	25.7575	16.3769	1893.506	0.6828	0.6534
0.861	2	42.23	1.05	116.77	0.0002	4663	28	17.98	476.1		0.861	2	42.2	10.285	0.0002	1138.477	1.6033	26.6666	16.6324	1825.31	0.6651	0.6687
0.871	2	43.23	0.98	116.24	0.0002	4847	29	17.99	463.9		0.871	2	43.2	10.278	0.0002	1144.416	1.5528	27.6732	17.8218	1777.021	0.6944	0.6877
0.881	2	44.23	0.99	115.61	0.0002	4766	29	17.98	454.5		0.881	2	44.2	10.279	0.0002	1152.613	1.575	27.6654	17.565	1815.398	0.6815	0.7031
0.891	2	45.23	0.97	116.15	0.0002	4796	29	17.99	443.3		0.891	2	45.2	10.277	0.0002	1145.452	1.567	27.681	17.6652	1794.901	0.6862	0.7222
0.901	2	46.23	0.95	116.48	0.0004	4937	29	17.99	433.6		0.901	2	46.2	10.275	0.0004	1141.033	1.5289	27.6965	18.1156	1744.496	0.7083	0.7397
0.911	2	47.23	0.94	117.16	0.0002	4809	29	17.99	429.6		0.911	2	47.2	10.274	0.0002	1132.371	1.5638	27.7043	17.7156	1770.842	0.688	0.7471
0.921	2	48.23	0.9	116.66	0.0003	4522	30	17.99	427.7		0.921	2	48.2	10.27	0.0003	1138.202	1.647	28.6918	17.4207	1874.615	0.6398	0.7506
0.931	2	49.23	1.14	116.11	0.0006	4346	30	17.99	425.9		0.931	2	49.2	10.294	0.0006	1147.859	1.697	28.4994	16.7936	1947.957	0.6108	0.7541
0.941	2	50.23	1.13	126.35	0.0003	4331	30	17.99	425.8		0.941	2	50.2	10.293	0.0003	1030.124	1.7019	28.5074	16.7501	1753.19	0.6079	0.7543
0.951	2	51.23	0.97	117.42	0.0003	4351	29	18	427		0.951	2	51.2	10.277	0.0003	1129.465	1.6983	27.681	16.2995	1918.137	0.6101	0.7519
0.961	2	52.23	1.12	125.05	0.0002	4436	28	17.98	427.8		0.961	2	52.2	10.292	0.0002	1043.602	1.6695	26.6143	15.9418	1742.258	0.6268	0.7504
0.971	2	53.23	1.16	129.98	0.0001	4883	28	17.99	433.9		0.971	2	53.2	10.296	0.0001	994.3022	1.5403	26.5845	17.2597	1531.495	0.7017	0.7391
0.981	2	54.23	1.2	130.84	0.0001	5003	27	17.99	444.6		0.981	2	54.2	10.3	0.0001	986.4956	1.5077	25.6064	16.9838	1487.34	0.7206	0.7199
0.991	2	55.23	1.33	119.19	0.0002	4974	27	18	451.7		0.991	2	55.2	10.313	0.0002	1111.794	1.5134	25.5135	16.8581	1682.62	0.7173	0.7078
1.001	2	56.23	1.43	118.03	0.0003	5052	27	17.99	458		1.001	2	56.2	10.323	0.0003	1126.965	1.4916	25.4424	17.0572	1680.972	0.7299	0.6973
1.011	2	57.23	1.42	120.51	0.0003	4943	27	18	464.5		1.011	2	57.2	10.322	0.0003	1097.151	1.5203	25.4495	16.7396	1668.017	0.7133	0.6868
1.021	2	58.23	1.48	117.79	0.0003	4915	27	18	463.3		1.021	2	58.2	10.328	0.0003	1130.473	1.5269	25.4069	16.6396	1726.119	0.7095	0.6887
1.031	2	59.23	1.52	120.57	0.0003	4940	27	18.01	464.4		1.031	2	59.2	10.332	0.0003	1097.514	1.5196	25.3786	16.7004	1667.829	0.7137	0.687
1.041	2	60.23	1.42	119.93	0.0003	4793	26	18	465.1		1.041	2	60.2	10.322	0.0003	1103.957	1.561	24.5069	15.6997	1723.252	0.6897	0.6859
1.051	2	61.23	1.52	119.52	0.0003	4548	26	18	464.3		1.051	2	61.2	10.332	0.0003	1109.894	1.6294	24.4387	14.9985	1808.472	0.65	0.6871
1.061	2	62.23	1.42	119.84	0.0002	4722	26	18.01	461.5		1.061	2	62.2	10.322	0.0002	1105.021	1.5808	24.5069	15.503	1746.806	0.6782	0.6915
1.071	2	63.23	1.28	127.08	0.0007	4874	25	18.01	460.8		1.071	2	63.2	10.308	0.0007	1024.143	1.5409	23.6567	15.3524	1578.116	0.7013	0.6928
1.081	2	64.23	1.31	119.11	0.0006	4869	24	18.01	461.4		1.081	2	64.2	10.311	0.0006	1112.538	1.5418	22.6914	14.7173	1715.334	0.7008	0.6918
1.091	2	65.23	1.26	119.07	0.0007	4805	23	18.01	462.2		1.091	2	65.2	10.306	0.0007	1112.478	1.5601	21.7763	13.9584	1735.56	0.6902	0.6904
1.101	2	66.23	1.22	119.59	0.0004	4810	24	18.01	465.3		1.101	2	66.2	10.302	0.0004	1105.839	1.5593	22.7485	14.5888	1724.347	0.6907	0.6855
1.111	2	67.23	1.09	116.08	0.0004	4864	23	18.01	464.7		1.111	2	67.2	10.289	0.0004	1147.685	1.5465	21.8801	14.1484	1774.87	0.6981	0.6865
1.121	2	68.23	1.07	115.94	0.0003	4792	23	18.01	461		1.121	2	68.2	10.287	0.0003	1149.257	1.5666	21.8924	13.9748	1800.387	0.6864	0.6923
1.131	2	69.23	0.99	119.34	0.0006	4858	23	18.01	459.4		1.131	2	69.2	10.279	0.0006	1106.34	1.5496	21.9415	14.1593	1714.404	0.6963	0.695
1.141	2	70.23	1	119.29	0.0007	4874	23	18.02	457.3		1.141	2	70.2	10.28	0.0007	1107.043	1.5451	21.9354	14.1967	1710.504	0.6989	0.6984
1.151	2	71.23	1.03	116.63	0.0007	4827	23	18.02	453.3		1.151	2	71.2	10.283	0.0007	1140.022	1.5575	21.917	14.0718	1775.591	0.6917	0.7051
1.161	2	72.23	0.94	116.2	0.0007	4843	23	18.02	450.4		1.161	2	72.2	10.274	0.0007	1144.48	1.5545	21.9723	14.1349	1779.067	0.6935	0.7099
1.171	2	73.23	1.01	116.01	0.0006	4840	23	18.02	449		1.171	2	73.2	10.281	0.0006	1147.689	1.5542	21.9292	14.1093	1783.784	0.6936	0.7123
1.181	2	74.23	0.9	116.3	0.0004	4724	23	18.01	447		1.181	2	74.2	10.27	0.0004	1142.762	1.5882	21.997	13.85	1814.966	0.6739	0.7157
1.191	2	75.23	0.85	116.26	0.0003	4640	23	18.02	449.7		1.191	2	75.2	10.265	0.0003	1142.714	1.6131	22.0279	13.656	1843.261	0.6595	0.7111
1.201	2	76.23	0.79	114.97	0.0009	4555	23	18.01	455.4		1.201	2	76.2	10.259	0.0009	1158.685	1.6389	22.0651	13.4632	1898.998	0.6445	0.7016
1.211	2	77.23	0.7	109.85	0.0007	4396	23	18.02	456.9		1.211	2	77.2	10.25	0.0007	1228.722	1.6887	22.121	13.0997	2074.902	0.6156	0.6991
1.221	2	78.23	0.66	114.41	0.0003	4239	23	18.02	457.8		1.221	2	78.2	10.246	0.0003	1164.583	1.7393	22.1459	12.7328	2025.544	0.5863	0.6976
1.231	2	79.23	0.61	116.14	0.0004	4754	23	18.02	456		1.231	2	79.2	10.241	0.0004	1141.567	1.5842	22.1771	13.9985	1808.523	0.6762	0.7006
1.241	2	80.23	0.67	116.1	0.001	4929	23	18.03	454.8		1.241	2	80.2	10.247	0.001	1142.746	1.5352	22.1397	14.4214	1754.343	0.7046	0.7025
1.251	2	81.23	0.68	116.58	0.0011	4884	23	18.04	457.7		1.251	2	81.2	10.248	0.0011	1136.772	1.5472	22.1335	14.3054	1758.829	0.6977	0.6978
1.261	2	82.23	0.62	116.43	0.0006	4736	22	18.03	461.7		1.261	2	82.2	10.242	0.0006	1138	1.5892	21.2069	13.3447	1808.476	0.6733	0.6913
1.271	2	83.23	0.52	99.77	0.0009	4738	22	18.03	466.8		1.271	2	83.2	10.232	0.0009	1395.146	1.5902	21.2668	13.374	2218.501	0.6728	0.6832
1.281	2	84.23	0.52	101.33	0.0004	4841	22	18.04	467.2		1.281	2	84.2	10.232	0.0004	1366.088	1.5614	21.2668	13.6203	2133.02	0.6894	0.6825
1.291	2	85.23	0.53	115.87	0.0004	4821	22	18.04	470.8		1.291	2	85.2	10.233	0.0004	1144.119	1.5668	21.2608	13.5698	1792.577	0.6863	0.6769
1.301	2	86.23	0.47	116.25	0.0007	4800	23	18.05	473.3		1.301	2	86.2	10.227	0.0007	1138.611	1.5735	22.2648	14.1496	1791.634	0.6824	0.673
1.311	2	87.23	0.51	115.9	0.0007	4830	22	18.06	474.9		1.311	2	87.2	10.231	0.0007	1143.512	1.5646	21.2727	13.5963	1789.131	0.6876	0.6705
1.321	2	88.23	0.53	116.05	0.0005	4872	22	18.05	474.5		1.321	2	88.2	10.233	0.0005	1141.821	1.5528	21.2608	13.6923	1772.967	0.6945	0.6711
1.331	2	89.23	0.54	115.99	0.0004	4888	23	18.05	476.6		1.331	2	89.2	10.234	0.0004	1142.698	1.5482	22.2209	14.3523	1769.172	0.6971	0.6679
1.341	2	90.23	0.53	115.64	0.0004	4837	23	18.06	474.5		1.341	2	90.2	10.233	0.0004	1147.069	1.5624	22.2272	14.2267	1792.13	0.6889	0.6711
1.351	2	91.23	0.49	116.17	0.0003	4770	23	18.06	474.5		1.351	2	91.2	10.229	0.0003	1139.849	1.5816	22.2522	14.0694	1802.79	0.6777	0.6711
1.361	2	92.23	0.54	103.26	0.0003	4738	23	18.07	476.4		1.361	2	92.2	10.234	0.0003	1332.032	1.5898	22.2209	13.9768	2117.726	0.6729	0.6683
1.371	2	93.23	0.48	115.63	0.0002	4645	23	18.07	476.5		1.371	2	93.2	10.228	0.0002	1146.637	1.6174	22.2585	13.7616	1854.614	0.6569	0.6681
1.381	2	94.23	0.48	115.18	0.0004	4691	23	18.07	476		1.381	2	94.2	10.228	0.0004	1152.451	1.6042	22.2585	13.8754	1848.725	0.6646	0.6689
1.391	2	95.23	0.54	115.81	0.0003	4752	24	18.08	477.5		1.391	2	95.2	10.234	0.0003	1144.999	1.5859	23.187	14.6208	1815.846	0.6752	0.6666
1.401	2	96.23	0.48	119.57	0.0001	4768	23	18.07	478.6		1.401	2	96.2	10.228	0.0001	1098.132	1.5823	22.2585	14.067	1737.597	0.6773	0.665
1.411	2	97.23	0.53	116.3	0.0002	4791	25	18.07	477		1.411	2	97.2	10.233	0.0002	1138.645	1.5751	24.16	15.3386	1793.492	0.6815	0.6675
1.421	2	98.23	0.53	116.3	0.0002	4691	25	18.08	476.1		1.421	2	98.2	10.233	0.0002	1138.645	1.6034	24.16	15.0681	1825.685	0.6651	0.6687
1.431	2	99.23	0.53	115.8	0.0002	4720	26	18.09	471.2		1.431	2	99.2	10.233	0.0002	1145.015	1.5951	25.1263	15.7521	1826.421	0.6699	0.6763
1.441	2	100.23	0.54	99.91	0.0003	4697	27	18.09	464.9		1.441	2	100.2	10.234	0.0003	1392.76	1.6015	26.0854	16.288	2230.519	0.6662	0.6861
1.451	2	101.23	0.53	98.48	0.0002	4682	27	18.09	461.2		1.451	2	101.2	10.233	0.0002	1420.264	1.606	26.0927	16.2474	2280.896	0.6636	0.6921
1.461	2	102.23	0.57	106.72	0.0002	4558	28	18.09	458.4		1.461	2	102.2	10.237	0.0002	1275.003	1.6416	27.0287	16.4653	2092.988	0.6429	0.6967
1.471	2	103.23	0.62	99.67	0.0002	4492	29	18.09	458.2		1.471	2	103.2	10.242	0.0002	1398.416	1.6605	27.9546	16.8347	2322.122	0.6319	0.697
1.481	2	104.23	0.68	106.24	0.0001	4317	29	18.09	460.7		1.481	2	104.2	10.248	0.0001	1284.05	1.7138	27.9074	16.2836	2200.655	0.601	0.6929
1.491	2	105.23	0.67	98.24	0.0004	4269	30	18.1	459.5		1.491	2	105.2	10.247	0.0004	1426.96	1.7294	28.8779	16.6983	2467.77	0.592	0.6949
1.501	2	106.23	0.67	105.6	0.0008	4455	30	18.09	456.9		1.501	2	106.2	10.247	0.0008	1294.303	1.671	28.8779	17.282	2162.749	0.6259	0.6991
1.511	2	107.23	0.62	110.22	0.0007	4497	30	18.21	458.5		1.511	2	107.2	10.242	0.0007	1222.342	1.659	28.9185	17.431	2027.896	0.6328	0.6964
1.521	2	108.23	0.62	107.95	0.0013	4774	30	18.21	460.1		1.521	2	108.2	10.242	0.0013	1256.379	1.5785	28.9185	18.3205	1983.164	0.6795	0.6938
1.531	2	109.23	0.56	108.33	0.0021	4734	29	18.21	465.1		1.531	2	109.2	10.236	0.0021	1249.817	1.5907	28.0019	17.6038	1988.043	0.6725	0.6859
1.541	2	110.23	0.56	94.17	0.0023	4805	30	18.21	469.5		1.541	2	110.2	10.236	0.0023	1511.072	1.5708	28.9674	18.4418	2373.52	0.684	0.6789
1.551	2	111.23	0.61	94.68	0.0066	4813	29	18.21	471.7		1.551	2	111.2	10.241	0.0066	1500.513	1.5678	27.9624	17.8358	2352.453	0.6858	0.6755
1.561	2	112.23	0.66	94.91	0.0053	4791	29	18.21	470.2		1.561	2	112.2	10.246	0.0053	1496.203	1.5731	27.9231	17.7502	2353.697	0.6826	0.6777
1.571	2	113.23	0.61	94.68	0.0067	4755	30	18.22	466.9		1.571	2	113.2	10.241	0.0067	1500.513	1.584	28.9267	18.2622	2376.759	0.6764	0.6829
1.581	2	114.23	0.68	94.6	0.0066	4730	30	18.21	462		1.581	2	114.2	10.248	0.0066	1503.301	1.5899	28.8697	18.1578	2390.154	0.6729	0.6907
1.591	2	115.23	0.66	94.49	0.006	4718	30	18.21	456.2		1.591	2	115.2	10.246	0.006	1505.437	1.5937	28.886	18.1257	2399.141	0.6707	0.7002
1.601	2	116.23	0.65	94.5	0.0062	4727	30	18.21	451.7		1.601	2	116.2	10.245	0.0062	1505.068	1.5913	28.8941	18.1581	2394.944	0.6721	0.7078
1.611	2	117.23	0.71	94.44	0.0065	4681	30	18.21	444.2		1.611	2	117.2	10.251	0.0065	1507.278	1.6034	28.8454	17.9898	2416.82	0.6651	0.7207
1.621	2	118.23	0.82	94.35	0.0054	4547	31	18.21	436.5		1.621	2	118.2	10.262	0.0054	1510.895	1.6408	29.7148	18.1097	2479.11	0.6434	0.7343
1.631	2	119.23	0.77	93.89	0.0044	4503	31	18.22	432		1.631	2	119.2	10.257	0.0044	1520.457	1.6548	29.7566	17.9821	2516.037	0.6353	0.7426
1.641	2	120.23	0.82	93.83	0.003	4453	33	18.22	428		1.641	2	120.2	10.262	0.003	1522.552	1.6691	31.6319	18.951	2541.357	0.6269	0.7501
1.651	2	121.23	0.93	94.04	0.004	4291	33	18.23	424.2		1.651	2	121.2	10.273	0.004	1519.45	1.718	31.5344	18.3558	2610.343	0.5986	0.7574
1.661	2	122.23	0.91	93.37	0.0019	4060	34	18.23	426.7		1.661	2	122.2	10.271	0.0019	1534.359	1.7949	32.5082	18.1118	2753.959	0.554	0.7526
1.671	2	123.23	0.98	92.65	0.0013	4075	31	18.23	424		1.671	2	123.2	10.278	0.0013	1552.099	1.7885	29.5817	16.5399	2775.928	0.5577	0.7577
1.681	2	124.23	1.02	105.3	0.0017	4153	33	18.24	423.9		1.681	2	124.2	10.282	0.0017	1303.664	1.7615	31.4549	17.857	2296.386	0.5734	0.7578
1.691	2	125.23	0.91	109.86	0.0005	4455	31	18.23	427.2		1.691	2	125.2	10.271	0.0005	1231.092	1.6671	29.6398	17.7796	2052.317	0.6281	0.7515
1.701	2	126.23	1.12	103.77	0.0008	4531	29	18.24	417		1.701	2	126.2	10.292	0.0008	1330.747	1.6408	27.5648	16.7997	2183.48	0.6434	0.7714
1.711	2	127.23	1.16	94.52	0.0006	4535	29	18.24	421.3		1.711	2	127.2	10.296	0.0006	1512.116	1.639	27.534	16.7996	2478.306	0.6445	0.7629
1.721	2	128.23	1.21	94.46	0.0022	4563	27	18.24	428.4		1.721	2	128.2	10.301	0.0022	1514.185	1.6299	25.5993	15.7062	2467.942	0.6497	0.7494
1.731	2	129.23	1.3	95.05	0.0025	4682	26	18.24	435.6		1.731	2	129.2	10.31	0.0025	1502.477	1.594	24.5892	15.4264	2394.907	0.6705	0.736
1.741	2	130.23	1.33	94.93	0.002	4560	26	18.24	441.6		1.741	2	130.2	10.313	0.002	1505.547	1.6289	24.5686	15.0832	2452.339	0.6503	0.7252
1.751	2	131.23	1.44	94.83	0.001	4677	25	18.24	445.3		1.751	2	131.2	10.324	0.001	1509.357	1.5932	23.5512	14.782	2404.76	0.671	0.7187
1.761	2	132.23	1.49	95.12	0.0012	4702	24	18.25	448.4		1.761	2	132.2	10.329	0.0012	1503.712	1.5854	22.5776	14.2413	2383.931	0.6755	0.7133
1.771	2	133.23	1.73	95.47	0.0026	4714	24	18.24	451.6		1.771	2	133.2	10.353	0.0026	1499.565	1.5783	22.4272	14.2097	2366.773	0.6796	0.708
1.781	2	134.23	1.9	95.81	0.0015	4703	24	18.25	451.8		1.781	2	134.2	10.37	0.0015	1494.667	1.5788	22.3216	14.1382	2359.802	0.6793	0.7075
1.791	2	135.23	2.15	94.85	0.001	4714	24	18.25	453.8		1.791	2	135.2	10.395	0.001	1519.293	1.5719	22.1674	14.102	2388.22	0.6833	0.7042
1.801	2	136.23	2.3	95.26	0.0025	4638	25	18.25	457.1		1.801	2	136.2	10.41	0.0025	1512.422	1.5912	22.9954	14.452	2406.503	0.6722	0.6987
1.811	2	137.23	3.46	95.77	0.0005	4607	25	18.26	453.5		1.811	2	137.2	10.526	0.0005	1518.027	1.5824	22.2746	14.0762	2402.161	0.6772	0.7048
1.821	2	138.23	4.01	96.36	0.0008	4664	26	18.26	451.5		1.821	2	138.2	10.581	0.0008	1513.084	1.5582	22.8216	14.6465	2357.628	0.6913	0.7081
1.831	2	139.23	3.92	101.85	0.0001	4563	27	18.26	446.9		1.831	2	139.2	10.572	0.0001	1401.75	1.5881	23.7573	14.9596	2226.121	0.674	0.7159
1.841	2	140.23	3.98	96.1	0.0003	4547	27	18.26	437.6		1.841	2	140.2	10.578	0.0003	1518.301	1.5918	23.7186	14.9005	2416.838	0.6718	0.7323
1.851	2	141.23	3.72	95.8	0.0019	4531	28	18.27	422.6		1.851	2	141.2	10.552	0.0019	1521.119	1.6004	24.7714	15.4786	2434.343	0.6668	0.7605
1.861	2	142.23	3.6	95.68	0.002	4540	29	18.27	390.9		1.861	2	142.2	10.54	0.002	1522.022	1.5996	25.7401	16.0919	2434.583	0.6673	0.8271
1.871	2	143.23	3.68	96.1	0.007	4455	30	18.26	326.2		1.871	2	143.2	10.548	0.007	1513.995	1.6233	26.5697	16.3678	2457.655	0.6535	1.0051
1.881	2	144.23	3.54	95.27	0.0117	4359	30	18.26	231.7		1.881	2	144.2	10.534	0.0117	1530.215	1.6544	26.6712	16.1215	2531.571	0.6355	1.4529
1.891	2	145.23	6.22	999	0	4507	30	18.27	165.1		1.891	2	145.2	10.802	0.010275	1497.11425	1.5702	24.819	15.8067	174.392	0.6844	2.0934
1.901	2	146.23	6.75	999	0	7135	29	18.27	150.8		1.901	2	146.2	10.855	0.00885	1464.0135	1.0073	23.6585	23.4873	112.4249	1.0109	2.3082
1.911	3	0.97	6.69	999	0	5336	29	18.28	190.2		1.911	3	1	10.849	0.007425	1430.91275	1.3518	23.6959	17.5296	150.7888	0.811	1.7974
1.921	3	1.97	7.35	999	0	4665	29	18.28	254.7		1.921	3	2	10.915	0.006	1397.812	1.5102	23.2892	15.4212	169.4884	0.7191	1.3123
1.931	3	2.97	7.16	999	0	4602	29	18.28	314.4		1.931	3	3	10.896	0.004575	1364.71125	1.5301	23.4053	15.2969	171.4179	0.7076	1.0457
1.941	3	3.97	6.6	999	0	4682	28	18.28	356.2		1.941	3	4	10.84	0.00315	1331.6105	1.516	22.9331	15.127	168.9735	0.7158	0.9143
1.951	3	4.97	2.5	999	0	4723	27	18.28	381		1.951	3	5	10.43	0.001725	1298.50975	1.5641	24.6983	15.7903	167.7412	0.6879	0.8503
1.961	3	5.97	0.85	107.55	0.0003	4719	29	18.29	393.5		1.961	3	6	10.265	0.0003	1265.409	1.5904	27.7743	17.4636	2012.53	0.6726	0.8212
1.971	3	6.97	0.58	110.74	0.0003	4688	29	18.28	397.2		1.971	3	7	10.238	0.0003	1214.328	1.6035	27.9861	17.4536	1947.128	0.665	0.813
1.981	3	7.97	0.48	115.02	0.0003	4594	30	18.29	396.8		1.981	3	8	10.228	0.0003	1154.532	1.6323	29.0328	17.7859	1884.598	0.6483	0.8137
1.991	3	8.97	0.36	109.77	0.0011	4609	32	18.29	396		1.991	3	9	10.216	0.0011	1225.822	1.6299	31.0734	19.0652	1997.91	0.6497	0.8155
2.001	3	9.97	0.24	109.27	0.002	4524	33	18.29	395.1		2.001	3	10	10.204	0.002	1231.772	1.657	32.1533	19.404	2041.105	0.634	0.8175
2.011	3	10.97	0.3	105.54	0.0018	4284	35	18.29	395		2.011	3	11	10.21	0.0018	1290.608	1.7308	34.0442	19.6695	2233.795	0.5912	0.8178
2.021	3	11.97	0.25	103.1	0.0014	4145	36	18.3	392.5		2.021	3	12	10.205	0.0014	1331.029	1.7775	35.0664	19.7283	2365.86	0.5641	0.8233
2.031	3	12.97	0.34	92.52	0.0022	4052	37	18.31	394.2		2.031	3	13	10.214	0.0022	1545.468	1.8076	35.9489	19.8872	2793.656	0.5466	0.8195
2.041	3	13.97	0.35	92.1	0.0021	3992	37	18.29	399.2		2.041	3	14	10.215	0.0021	1555.505	1.8284	35.9388	19.6553	2844.161	0.5345	0.8086
2.051	3	14.97	0.35	91.88	0.0013	4087	36	18.3	405.5		2.051	3	15	10.215	0.0013	1560.734	1.7954	34.9675	19.476	2802.16	0.5537	0.7951
2.061	3	15.97	0.45	103.04	0.0013	4315	36	18.3	410.1		2.061	3	16	10.225	0.0013	1334.682	1.7183	34.8689	20.2923	2293.428	0.5984	0.7853
2.071	3	16.97	0.46	103.11	0.0004	4752	36	18.3	416.1		2.071	3	17	10.226	0.0004	1333.594	1.5871	34.8591	21.9635	2116.592	0.6745	0.7733
2.081	3	17.97	0.56	94.37	0.0006	4792	34	18.31	421.9		2.081	3	18	10.236	0.0006	1506.623	1.5744	32.8298	20.8526	2371.984	0.6819	0.7618
2.091	3	18.97	0.6	93.96	0.0024	4766	32	18.3	430.1		2.091	3	19	10.24	0.0024	1516.363	1.581	30.8638	19.5214	2397.412	0.6781	0.7461
2.101	3	19.97	0.67	99.88	0.0035	4785	31	18.31	437.8		2.101	3	20	10.247	0.0035	1395.099	1.5746	29.8404	18.9507	2196.768	0.6818	0.732
2.111	3	20.97	0.75	106.69	0.002	4734	31	18.31	446.1		2.111	3	21	10.255	0.002	1277.722	1.5877	29.7734	18.7523	2028.666	0.6742	0.7173
2.121	3	21.97	0.8	106.59	0.0015	4798	29	18.31	449.1		2.121	3	22	10.26	0.0015	1279.94	1.569	27.8134	17.7266	2008.253	0.685	0.7122
2.131	3	22.97	0.84	106.96	0.002	4663	29	18.31	454.1		2.131	3	23	10.264	0.002	1274.556	1.6066	27.7821	17.2928	2047.665	0.6632	0.7038
2.141	3	23.97	0.9	106.85	0.002	4655	28	18.31	457.2		2.141	3	24	10.27	0.002	1277.046	1.6079	26.779	16.6543	2053.408	0.6624	0.6985
2.151	3	24.97	0.95	106.93	0.0019	4566	29	18.32	457.9		2.151	3	25	10.275	0.0019	1276.397	1.6331	27.6965	16.9593	2084.509	0.6478	0.6974
2.161	3	25.97	1	106.53	0.0016	4568	29	18.32	459.3		2.161	3	26	10.28	0.0016	1283.396	1.6317	27.6577	16.9499	2094.161	0.6486	0.6951
2.171	3	26.97	1.04	106.1	0.0025	4444	28	18.32	462.4		2.171	3	27	10.284	0.0025	1290.825	1.6683	26.674	15.9886	2153.506	0.6274	0.6901
2.181	3	27.97	1.01	99.51	0.0021	4246	29	18.32	461.8		2.181	3	28	10.281	0.0021	1406.814	1.7311	27.6499	15.9725	2435.331	0.591	0.6912
2.191	3	28.97	1.06	99.71	0.0014	4284	28	18.32	462.4		2.191	3	29	10.286	0.0014	1403.657	1.718	26.6591	15.5173	2411.511	0.5986	0.6902
2.201	3	29.97	1.06	106.04	0.0018	4554	28	18.32	461.6		2.201	3	30	10.286	0.0018	1292.049	1.6349	26.6591	16.3061	2112.395	0.6468	0.6914
2.211	3	30.97	1.01	106.68	0.0022	4550	28	18.33	459.5		2.211	3	31	10.281	0.0022	1281.121	1.6369	26.6965	16.3092	2097.067	0.6457	0.6949
2.221	3	31.97	1.01	106.33	0.0022	4554	27	18.32	454.8		2.221	3	32	10.281	0.0022	1286.733	1.6357	25.743	15.7381	2104.728	0.6463	0.7025
2.231	3	32.97	0.94	98.85	0.0028	4639	27	18.33	450.2		2.231	3	33	10.274	0.0028	1418.669	1.6119	25.7936	16.0017	2286.798	0.6601	0.7102
2.241	3	33.97	0.93	94.14	0.0035	4631	27	18.32	443.7		2.241	3	34	10.273	0.0035	1517.206	1.6144	25.8009	15.9816	2449.388	0.6587	0.7215
2.251	3	34.97	0.87	106.91	0.0027	4646	27	18.33	437		2.251	3	35	10.267	0.0027	1275.721	1.611	25.8444	16.0424	2055.193	0.6607	0.7334
2.261	3	35.97	0.81	107.08	0.0028	4650	26	18.33	433.4		2.261	3	36	10.261	0.0028	1272.288	1.6108	24.9291	15.4763	2049.389	0.6608	0.74
2.271	3	36.97	0.82	107.11	0.0025	4664	26	18.34	427.8		2.271	3	37	10.262	0.0025	1271.938	1.6066	24.9221	15.5124	2043.492	0.6632	0.7505
2.281	3	37.97	0.75	107.22	0.0022	4649	26	18.34	422.8		2.281	3	38	10.255	0.0022	1269.34	1.612	24.9712	15.4906	2046.205	0.6601	0.7601
2.291	3	38.97	0.8	106.93	0.0029	4655	26	18.34	415.3		2.291	3	39	10.26	0.0029	1274.534	1.6095	24.9361	15.4931	2051.367	0.6615	0.7748
2.301	3	39.97	0.81	106.92	0.0035	4592	26	18.34	408.4		2.301	3	40	10.261	0.0035	1274.817	1.6277	24.9291	15.3157	2075.001	0.651	0.789
2.311	3	40.97	0.76	106.9	0.0031	4615	27	18.34	400.8		2.311	3	41	10.256	0.0031	1274.512	1.6217	25.9244	15.9855	2066.932	0.6544	0.805
2.321	3	41.97	0.81	106.67	0.0035	4642	27	18.34	394.8		2.321	3	42	10.261	0.0035	1278.789	1.6131	25.8879	16.0485	2062.82	0.6595	0.8182
2.331	3	42.97	0.76	94.11	0.006	4489	28	18.35	390.1		2.331	3	43	10.256	0.006	1515.366	1.6592	26.8845	16.2035	2514.261	0.6327	0.8289
2.341	3	43.97	0.82	94.45	0.0105	4492	29	18.35	383.4		2.341	3	44	10.262	0.0105	1508.674	1.6573	27.7978	16.7729	2500.327	0.6338	0.8444
2.351	3	44.97	0.82	93.78	0.0098	4156	30	18.34	379.4		2.351	3	45	10.262	0.0098	1523.682	1.7639	28.7563	16.3025	2687.649	0.572	0.8541
2.361	3	45.97	0.77	92.69	0.0118	4021	30	18.35	376.3		2.361	3	46	10.257	0.0118	1547.993	1.8108	28.7967	15.9027	2803.123	0.5448	0.8617
2.371	3	46.97	0.79	91.71	0.0119	4569	30	18.34	374.4		2.371	3	47	10.259	0.0119	1571.538	1.6348	28.7806	17.6052	2569.117	0.6469	0.8665
2.381	3	47.97	0.78	92.41	0.0018	5389	30	18.37	374.3		2.381	3	48	10.258	0.0018	1554.713	1.4168	28.7886	20.3188	2202.787	0.7733	0.8665
2.391	3	48.97	0.82	92.83	0.023	4316	29	18.35	378.4		2.391	3	49	10.262	0.023	1545.482	1.7118	27.7978	16.2387	2645.585	0.6022	0.8566
2.401	3	49.97	0.82	93.65	0.0296	4496	28	18.36	380		2.401	3	50	10.262	0.0296	1526.629	1.6561	26.8392	16.2063	2528.24	0.6345	0.8527
2.411	3	50.97	0.86	94.29	0.0159	4528	27	18.36	385.8		2.411	3	51	10.266	0.0159	1512.82	1.6458	25.8516	15.7072	2489.867	0.6405	0.8388
2.421	3	51.97	0.9	94.71	0.009	4651	26	18.36	392.8		2.421	3	52	10.27	0.009	1504.101	1.6091	24.8662	15.4536	2420.234	0.6618	0.8227
2.431	3	52.97	1	94.97	0.003	4583	25	18.36	398.7		2.431	3	53	10.28	0.003	1499.854	1.6273	23.8428	14.6516	2440.74	0.6512	0.8096
2.441	3	53.97	1.1	106.68	0.003	4605	25	18.36	404.6		2.441	3	54	10.29	0.003	1282.243	1.6193	23.7761	14.683	2076.334	0.6559	0.7969
2.451	3	54.97	1.15	106.56	0.0041	4569	25	18.36	406.3		2.451	3	55	10.295	0.0041	1284.787	1.6291	23.7428	14.5745	2092.999	0.6502	0.7933
2.461	3	55.97	1.2	106.7	0.0045	4634	25	18.36	407.7		2.461	3	56	10.3	0.0045	1283.169	1.6093	23.7096	14.7328	2065.015	0.6617	0.7903
2.471	3	56.97	1.19	106.63	0.0036	4661	25	18.37	410.8		2.471	3	57	10.299	0.0036	1284.165	1.6017	23.7163	14.8071	2056.827	0.6661	0.7841
2.481	3	57.97	1.14	106.58	0.0031	4648	25	18.37	406.3		2.481	3	58	10.294	0.0031	1284.342	1.6062	23.7495	14.7861	2062.914	0.6635	0.7934
2.491	3	58.97	1.15	106.44	0.0034	4575	26	18.37	402.2		2.491	3	59	10.295	0.0034	1286.714	1.6273	24.6925	15.174	2093.866	0.6512	0.8021
2.501	3	59.97	1.15	106.31	0.0032	4577	25	18.37	399		2.501	3	60	10.295	0.0032	1288.808	1.6267	23.7428	14.5956	2096.516	0.6516	0.8089
2.511	3	60.97	1.1	106.35	0.0036	4563	26	18.38	395		2.511	3	61	10.29	0.0036	1287.538	1.6316	24.7271	15.1549	2100.777	0.6487	0.8179
2.521	3	61.97	1.02	106.19	0.0045	4618	26	18.37	393		2.521	3	62	10.282	0.0045	1289.117	1.6168	24.7826	15.3285	2084.206	0.6573	0.8223
2.531	3	62.97	1	105.84	0.0046	4444	27	18.38	391.1		2.531	3	63	10.28	0.0046	1294.547	1.669	25.7502	15.4289	2160.557	0.627	0.8266
2.541	3	63.97	0.94	97.47	0.0038	4351	27	18.37	387.3		2.541	3	64	10.274	0.0038	1446.228	1.6988	25.7936	15.1837	2456.803	0.6098	0.8354
2.551	3	64.97	0.9	92.56	0.0038	4251	28	18.38	384.6		2.551	3	65	10.27	0.0038	1553.002	1.7313	26.779	15.4673	2688.758	0.5909	0.8418
2.561	3	65.97	0.95	92.28	0.0022	4158	28	18.38	381.2		2.561	3	66	10.275	0.0022	1560.365	1.761	26.7414	15.1852	2747.832	0.5737	0.8497
2.571	3	66.97	0.88	92.71	0.0029	4444	28	18.38	377		2.571	3	67	10.268	0.0029	1549.185	1.6709	26.794	16.0355	2588.562	0.6259	0.86
2.581	3	67.97	0.84	93.78	0.0062	4573	27	18.38	378.5		2.581	3	68	10.264	0.0062	1523.979	1.6328	25.8661	15.8416	2488.356	0.648	0.8564
2.591	3	68.97	0.79	94.26	0.0065	4489	27	18.38	380.3		2.591	3	69	10.259	0.0065	1512.458	1.6587	25.9025	15.6162	2508.701	0.633	0.8519
2.601	3	69.97	0.74	93.63	0.0037	4366	26	18.38	383.5		2.601	3	70	10.254	0.0037	1525.893	1.6974	24.9782	14.7159	2590.002	0.6106	0.8442
2.611	3	70.97	0.74	93.11	0.0031	4192	26	18.39	385.6		2.611	3	71	10.254	0.0031	1537.792	1.7533	24.9782	14.2461	2696.272	0.5781	0.8392
2.621	3	71.97	0.74	92.9	0.0018	4289	27	18.4	385.6		2.621	3	72	10.254	0.0018	1542.651	1.7218	25.9389	15.0652	2656.101	0.5964	0.8392
2.631	3	72.97	0.7	104.88	0.0021	4346	26	18.4	387.1		2.631	3	73	10.25	0.0021	1306.565	1.7043	25.0063	14.6723	2226.804	0.6065	0.8358
2.641	3	73.97	0.69	105.1	0.0032	4525	26	18.4	390		2.641	3	74	10.249	0.0032	1302.784	1.6495	25.0134	15.1645	2148.906	0.6384	0.829
2.651	3	74.97	0.65	105.73	0.0029	4674	25	18.48	394.5		2.651	3	75	10.245	0.0029	1291.929	1.6064	24.0784	14.9892	2075.333	0.6634	0.819
2.661	3	75.97	0.65	105.69	0.0028	4641	26	18.54	397.2		2.661	3	76	10.245	0.0028	1292.581	1.6159	25.0416	15.4968	2088.701	0.6578	0.8129
2.671	3	76.97	0.59	105.95	0.0016	4532	25	18.59	398		2.671	3	77	10.239	0.0016	1287.601	1.649	24.1191	14.6266	2123.236	0.6386	0.8112
2.681	3	77.97	0.51	105.77	0.002	4598	26	18.64	397.9		2.681	3	78	10.231	0.002	1289.514	1.6307	25.1405	15.4171	2102.8	0.6493	0.8114
2.691	3	78.97	0.49	105.77	0.0013	4589	26	18.68	395.5		2.691	3	79	10.229	0.0013	1289.261	1.6337	25.1547	15.3977	2106.217	0.6475	0.8167
2.701	3	79.97	0.44	105.67	0.0012	4588	26	18.73	396.5		2.701	3	80	10.224	0.0012	1290.257	1.6348	25.1902	15.4092	2109.255	0.6469	0.8144
2.711	3	80.97	0.4	105.42	0.0011	4562	27	18.77	394		2.711	3	81	10.22	0.0011	1293.835	1.6431	26.1886	15.9386	2125.895	0.6421	0.82
2.721	3	81.97	0.45	104.96	0.0012	4479	27	18.82	392.9		2.721	3	82	10.225	0.0012	1302.05	1.6672	26.1517	15.6856	2170.837	0.628	0.8226
2.731	3	82.97	0.45	105.26	0.002	4465	27	18.87	391		2.731	3	83	10.225	0.002	1297.095	1.6715	26.1517	15.6455	2168.11	0.6256	0.8269
2.741	3	83.97	0.44	105.38	0.0023	4506	28	18.93	390.3		2.741	3	84	10.224	0.0023	1294.997	1.6592	27.1279	16.3497	2148.692	0.6327	0.8283
2.751	3	84.97	0.44	105.37	0.0026	4473	29	18.98	392.3		2.751	3	85	10.224	0.0026	1295.161	1.6692	28.0968	16.8321	2161.928	0.6269	0.8238
2.761	3	85.97	0.44	105.25	0.0019	4482	29	19.05	398.4		2.761	3	86	10.224	0.0019	1297.133	1.6665	28.0968	16.8598	2161.666	0.6285	0.8103
2.771	3	86.97	0.44	105.23	0.0033	4423	29	19.12	404.3		2.771	3	87	10.224	0.0033	1297.462	1.6846	28.0968	16.6788	2185.68	0.618	0.7975
2.781	3	87.97	0.5	105.24	0.0037	4354	31	19.17	404.3		2.781	3	88	10.23	0.0037	1298.059	1.7051	29.9837	17.5844	2213.355	0.6061	0.7976
2.791	3	88.97	0.5	105.19	0.0021	4423	30	19.25	404.2		2.791	3	89	10.23	0.0021	1298.883	1.6836	29.0165	17.2348	2186.79	0.6186	0.7977
2.801	3	89.97	0.57	96.57	0.0021	4394	31	19.31	400.3		2.801	3	90	10.237	0.0021	1459.51	1.6914	29.9246	17.6919	2468.663	0.614	0.8062
2.811	3	90.97	0.64	105.61	0.0031	4365	31	19.37	402.7		2.811	3	91	10.244	0.0031	1293.761	1.6993	29.8657	17.5749	2198.539	0.6094	0.8009
2.821	3	91.97	0.74	105.76	0.0023	4403	31	19.44	403.3		2.821	3	92	10.254	0.0023	1292.575	1.6858	29.7817	17.6659	2179.069	0.6173	0.7997
2.831	3	92.97	0.8	105.75	0.0019	4325	31	19.51	395.6		2.831	3	93	10.26	0.0019	1293.495	1.7093	29.7315	17.394	2210.965	0.6037	0.8164
2.841	3	93.97	0.9	105.67	0.0022	4400	31	19.58	370.9		2.841	3	94	10.27	0.0022	1296.063	1.6841	29.6482	17.6044	2182.748	0.6182	0.8751
2.851	3	94.97	0.97	105.78	0.0034	4241	32	19.65	362.9		2.851	3	95	10.277	0.0034	1295.148	1.7334	30.5445	17.6212	2244.999	0.5897	0.896
2.861	3	95.97	1.1	105.34	0.0018	3980	32	19.71	358.7		2.861	3	96	10.29	0.0018	1304.017	1.8193	30.4334	16.7278	2372.446	0.5398	0.9073
2.871	3	96.97	1.17	104.46	0.0026	3918	32	19.77	356.1		2.871	3	97	10.297	0.0026	1319.621	1.8401	30.3738	16.5064	2428.268	0.5278	0.9144
2.881	3	97.97	1.28	103.79	0.0023	3899	33	19.85	355.4		2.881	3	98	10.308	0.0023	1332.472	1.845	31.2268	16.9251	2458.404	0.5249	0.9163
2.891	3	98.97	1.33	90.54	0.0008	3881	33	19.92	357.4		2.891	3	99	10.313	0.0008	1608.641	1.8506	31.1832	16.8502	2976.971	0.5217	0.9109
2.901	3	99.97	1.47	102.55	0.0006	4007	32	19.97	360.4		2.901	3	100	10.327	0.0006	1356.674	1.8034	30.1203	16.702	2446.615	0.5491	0.9027
2.911	3	100.97	1.47	107.49	0.0003	4498	32	20.05	365.1		2.911	3	101	10.327	0.0003	1273.995	1.6451	30.1203	18.3094	2095.811	0.6409	0.8903
2.921	3	101.97	1.49	105.63	0.0006	4455	31	20.11	371.3		2.921	3	102	10.329	0.0006	1304.167	1.6577	29.1628	17.5922	2161.929	0.6336	0.8741
2.931	3	102.97	1.66	105.9	0.0015	4512	29	20.16	378.3		2.931	3	103	10.346	0.0015	1301.875	1.6379	27.1524	16.5779	2132.304	0.6451	0.8568
2.941	3	103.97	2.09	106.46	0.0022	4456	29	20.21	384.1		2.941	3	104	10.389	0.0022	1298.138	1.6478	26.8301	16.2821	2139.117	0.6393	0.8428
2.951	3	104.97	3.66	106.67	0.0002	4367	28	20.29	384.8		2.951	3	105	10.546	0.0002	1314.307	1.6501	24.8119	15.0369	2168.694	0.638	0.8411
2.961	3	105.97	3.85	107.08	0.0001	4444	26	20.35	381.7		2.961	3	106	10.565	0.0001	1309.981	1.6239	22.9209	14.1143	2127.338	0.6532	0.8485
2.971	3	106.97	3.57	999	0	4465	26	20.41	375.8		2.971	3	107	10.537	0.000125	1305.547	1.622	23.0962	14.2392	175.7324	0.6543	0.8628
2.981	3	107.97	3.74	999	0	4462	24	20.47	362.5		2.981	3	108	10.554	0.00015	1301.113	1.6203	21.2211	13.0971	175.8288	0.6553	0.897
2.991	3	108.97	3.58	999	0	4359	23	20.53	336.4		2.991	3	109	10.538	0.000175	1296.679	1.6538	20.4257	12.351	179.1885	0.6359	0.9722
3.001	3	109.97	3.35	107.8	0.0002	4471	21	20.6	290.3		3.001	3	110	10.515	0.0002	1292.245	1.6236	18.7669	11.5586	2098.131	0.6533	1.1396
3.011	3	110.97	3.03	94.74	0.0004	4529	19	20.64	223.9		3.011	3	111	10.483	0.0004	1534.622	1.6115	17.1289	10.6293	2473.015	0.6604	1.5073
3.021	3	111.97	3.14	95.57	0.0011	6923	16	20.71	146.5		3.021	3	112	10.494	0.0011	1517.79	1.0777	14.3809	13.3435	1635.794	0.97	2.3803
3.031	3	112.97	2.98	129.02	0.0001	9581	12	20.77	85.1		3.031	3	113	10.478	0.0001	1021.347	0.7049	10.8331	15.368	719.9609	1.1862	4.2749
3.041	3	113.97	2.53	999	0	12762	8	20.85	52.2		3.041	3	114	10.433	0	107.2725	0.3955	7.312	18.4866	42.4293	1.3657	7.2395
