Geotek MSCL 7.9 - TN336_JPC42-51.raw created at 22:57:26 on 1/26/2016.											Geotek MSCL 7.9 - TN336_JPC42-51.out created at 22:58:31 on 1/26/2016.											
																						
																						
Core Depth	Section	Sect Depth	CTD 	Tr. Time 	PW Amp   	A Gamma  	Mag Sus  	Temp     	NC Res   		SB DEPTH	SECT NUM	SECT DEPTH	CT	PWAmp	PWVel	Den1	MS1	MS1	Imp	FP	RES
m		cm	mm	µsec		cps	SI x 10^-5	°C	mV		m		cm	cm		m/s	g/cc	SI x 10^-5	x 10^-8 (m^3/kg)			Ohm.m
																						
0.002	1	0.2	5.94	999	0	7362	11	20.69	294.3		0.002	1	0.2	10.774	0	110.8653	1.0243	9.1681	8.9505	113.5601	1.001	1.0701
0.012	1	1.2	5.82	999	0	5369	14	20.68	362.6		0.012	1	1.2	10.762	0	110.7418	1.371	11.7057	8.5382	151.8253	0.7999	0.8498
0.022	1	2.2	6.09	999	0	5293	16	20.69	469.9		0.022	1	2.2	10.789	0	111.0196	1.3839	13.2824	9.5981	153.6354	0.7924	0.6384
0.032	1	3.2	5.84	96.55	0.0005	5299	18	20.68	570.2		0.032	1	3.2	10.764	0.0005	1551.903	1.3858	15.0422	10.8548	2150.582	0.7913	0.5157
0.042	1	4.2	5.29	999	0	5380	19	20.69	646		0.042	1	4.2	10.709	0.0003	1440.5895	1.3754	16.1124	11.7145	151.566	0.7973	0.4494
0.052	1	5.2	0.86	104.42	0.0001	5325	21	20.68	698.5		0.052	1	5.2	10.266	0.0001	1329.276	1.4471	20.1068	13.8945	1923.602	0.7557	0.4122
0.062	1	6.2	0.17	93.31	0.0013	5297	21	20.69	726.6		0.062	1	6.2	10.197	0.0013	1542.196	1.4633	20.5018	14.0108	2256.67	0.7464	0.3947
0.072	1	7.2	-0.53	93.29	0.0017	5274	22	20.68	742.9		0.072	1	7.2	10.127	0.0017	1532.073	1.4787	21.9095	14.8166	2265.497	0.7374	0.3851
0.082	1	8.2	-0.5	93.89	0.0069	5284	22	20.69	751.1		0.082	1	8.2	10.13	0.0069	1518.741	1.476	21.8907	14.8315	2241.603	0.739	0.3805
0.092	1	9.2	-0.52	93.8	0.0078	5270	22	20.69	756.1		0.092	1	9.2	10.128	0.0078	1520.492	1.4795	21.9032	14.8045	2249.562	0.737	0.3777
0.102	1	10.2	-0.46	93.79	0.0142	5222	22	20.68	761.4		0.102	1	10.2	10.134	0.0142	1521.622	1.4898	21.8658	14.6769	2266.935	0.731	0.3748
0.112	1	11.2	-0.45	94.1	0.0103	5234	23	20.68	764.8		0.112	1	11.2	10.135	0.0103	1514.721	1.4869	22.8532	15.3701	2252.174	0.7327	0.373
0.122	1	12.2	-0.38	93.96	0.0051	5259	22	20.68	765.1		0.122	1	12.2	10.142	0.0051	1518.946	1.48	21.816	14.7405	2248.047	0.7367	0.3728
0.132	1	13.2	-0.31	94	0.0108	5249	23	20.68	761.9		0.132	1	13.2	10.149	0.0108	1519.084	1.4813	22.7622	15.3663	2250.232	0.7359	0.3746
0.142	1	14.2	-0.26	94.32	0.0058	5299	23	20.68	758.2		0.142	1	14.2	10.154	0.0058	1512.588	1.469	22.7299	15.4728	2222.022	0.743	0.3766
0.152	1	15.2	-0.2	94.39	0.0086	5227	23	20.68	749.8		0.152	1	15.2	10.16	0.0086	1511.905	1.4848	22.6912	15.282	2244.926	0.7339	0.3812
0.162	1	16.2	-0.1	94.83	0.0103	5274	23	20.68	742.2		0.162	1	16.2	10.17	0.0103	1503.548	1.4725	22.6268	15.3666	2213.917	0.741	0.3855
0.172	1	17.2	-0.05	94.91	0.0063	5258	22	20.68	738.9		0.172	1	17.2	10.175	0.0063	1502.51	1.4754	21.6123	14.6481	2216.859	0.7393	0.3875
0.182	1	18.2	0.02	95.19	0.0097	5138	23	20.69	735.6		0.182	1	18.2	10.182	0.0097	1497.353	1.5026	22.5499	15.0071	2249.947	0.7235	0.3893
0.192	1	19.2	-0.01	95.21	0.0087	5166	22	20.69	736.4		0.192	1	19.2	10.179	0.0087	1496.472	1.4964	21.5878	14.4265	2239.323	0.7271	0.3889
0.202	1	20.2	0.1	94.93	0.0066	5177	23	20.69	738.6		0.202	1	20.2	10.19	0.0066	1504.281	1.4922	22.4989	15.0778	2244.669	0.7296	0.3876
0.212	1	21.2	0.1	94.94	0.0053	5140	23	20.68	739.9		0.212	1	21.2	10.19	0.0053	1504.059	1.501	22.4989	14.9896	2257.532	0.7245	0.3868
0.222	1	22.2	0.15	95.18	0.0087	5274	23	20.68	742.8		0.222	1	22.2	10.195	0.0087	1499.485	1.4689	22.467	15.2956	2202.521	0.7431	0.3852
0.232	1	23.2	0.2	95.14	0.0067	5217	23	20.68	742.6		0.232	1	23.2	10.2	0.0067	1501.104	1.4813	22.4353	15.1452	2223.647	0.7359	0.3853
0.242	1	24.2	0.25	94.95	0.0052	5144	23	20.68	744.1		0.242	1	24.2	10.205	0.0052	1506.051	1.4978	22.4035	14.9576	2255.767	0.7263	0.3845
0.252	1	25.2	0.3	95.24	0.0063	5089	24	20.68	747.1		0.252	1	25.2	10.21	0.0063	1500.367	1.5102	23.3446	15.4577	2265.892	0.7191	0.3828
0.262	1	26.2	0.35	95.61	0.0049	5108	24	20.69	744.3		0.262	1	26.2	10.215	0.0049	1492.984	1.5049	23.3116	15.4903	2246.825	0.7222	0.3843
0.272	1	27.2	0.39	95.28	0.0062	5161	24	20.67	740		0.272	1	27.2	10.219	0.0062	1500.808	1.4917	23.2853	15.6097	2238.793	0.7299	0.3868
0.282	1	28.2	0.4	95.42	0.0072	5125	24	20.68	730.1		0.282	1	28.2	10.22	0.0072	1497.875	1.5001	23.2788	15.5179	2246.998	0.725	0.3926
0.292	1	29.2	0.44	95.64	0.003	5083	25	20.68	717.2		0.292	1	29.2	10.224	0.003	1493.645	1.5096	24.2213	16.0449	2254.808	0.7195	0.4004
0.302	1	30.2	0.45	95.09	0.0018	5117	25	20.69	704.8		0.302	1	30.2	10.225	0.0018	1505.891	1.5013	24.2145	16.1291	2260.792	0.7243	0.4082
0.312	1	31.2	0.45	95.74	0.0012	5037	25	20.69	690.9		0.312	1	31.2	10.225	0.0012	1491.612	1.5206	24.2145	15.9243	2268.146	0.7131	0.4173
0.322	1	32.2	0.45	95.16	0.0017	5028	27	20.68	690.6		0.322	1	32.2	10.225	0.0017	1504.34	1.5228	26.1517	17.1734	2290.804	0.7118	0.4175
0.332	1	33.2	0.41	95.51	0.0056	4991	27	20.68	688.4		0.332	1	33.2	10.221	0.0056	1496.048	1.5325	26.1812	17.0842	2292.666	0.7062	0.4189
0.342	1	34.2	0.35	95.63	0.0054	4981	26	20.68	680.5		0.342	1	34.2	10.215	0.0054	1492.548	1.5359	25.2543	16.4431	2292.337	0.7043	0.4243
0.352	1	35.2	0.33	95.62	0.0067	5120	27	20.68	666.3		0.352	1	35.2	10.213	0.0067	1492.474	1.5023	26.2404	17.4663	2242.211	0.7237	0.4343
0.362	1	36.2	0.38	95.48	0.0051	5135	27	20.68	651.2		0.362	1	36.2	10.218	0.0051	1496.266	1.498	26.2034	17.4918	2241.459	0.7262	0.4454
0.372	1	37.2	0.35	95.39	0.0034	5104	27	20.69	633.6		0.372	1	37.2	10.215	0.0034	1497.801	1.5059	26.2256	17.4155	2255.509	0.7216	0.4591
0.382	1	38.2	0.35	95.57	0.0035	5035	28	20.69	620.6		0.382	1	38.2	10.215	0.0035	1493.858	1.5226	27.1969	17.8624	2274.514	0.712	0.4697
0.392	1	39.2	0.31	95.31	0.005	5115	28	20.69	610.4		0.392	1	39.2	10.211	0.005	1498.972	1.5038	27.2277	18.1055	2254.208	0.7228	0.4784
0.402	1	40.2	0.31	95.39	0.0068	5015	29	20.68	604.4		0.402	1	40.2	10.211	0.0068	1497.214	1.5281	28.2001	18.4547	2287.85	0.7088	0.4836
0.412	1	41.2	0.26	95.22	0.0052	4996	30	20.69	603.9		0.412	1	41.2	10.206	0.0052	1500.22	1.5335	29.2138	19.0504	2300.586	0.7056	0.4841
0.422	1	42.2	0.25	95.1	0.0049	4988	30	20.68	608.8		0.422	1	42.2	10.205	0.0049	1502.724	1.5356	29.222	19.0294	2307.623	0.7044	0.4797
0.432	1	43.2	0.21	95.38	0.0066	4961	31	20.68	614.9		0.432	1	43.2	10.201	0.0066	1495.967	1.5429	30.2303	19.5927	2308.18	0.7002	0.4745
0.442	1	44.2	0.2	95.63	0.0067	4956	32	20.68	618.2		0.442	1	44.2	10.2	0.0067	1490.357	1.5443	31.2143	20.2121	2301.608	0.6993	0.4717
0.452	1	45.2	0.2	95.69	0.0052	4995	32	20.68	620.2		0.452	1	45.2	10.2	0.0052	1489.051	1.5346	31.2143	20.3397	2285.169	0.705	0.47
0.462	1	46.2	0.15	95.76	0.0059	4933	32	20.68	621.6		0.462	1	46.2	10.195	0.0059	1486.802	1.5509	31.2585	20.1557	2305.811	0.6956	0.4689
0.472	1	47.2	0.15	95.74	0.0059	4926	32	20.68	622.2		0.472	1	47.2	10.195	0.0059	1487.236	1.5526	31.2585	20.1328	2309.102	0.6945	0.4683
0.482	1	48.2	0.15	95.61	0.0054	4869	33	20.68	624.3		0.482	1	48.2	10.195	0.0054	1490.061	1.5671	32.2353	20.5704	2335.037	0.6862	0.4666
0.492	1	49.2	0.31	95.67	0.0055	4915	33	20.68	623.5		0.492	1	49.2	10.211	0.0055	1491.092	1.553	32.0898	20.6637	2315.592	0.6943	0.4673
0.502	1	50.2	0.36	95.73	0.0043	4929	32	20.68	621.6		0.502	1	50.2	10.216	0.0043	1490.516	1.5487	31.0734	20.0646	2308.316	0.6968	0.4688
0.512	1	51.2	0.39	95.79	0.0048	4974	32	20.67	615.2		0.512	1	51.2	10.219	0.0048	1489.65	1.537	31.0471	20.2	2289.574	0.7036	0.4743
0.522	1	52.2	0.36	95.82	0.0046	4970	33	20.68	608.6		0.522	1	52.2	10.216	0.0046	1488.562	1.5384	32.0445	20.8293	2290.051	0.7028	0.4799
0.532	1	53.2	0.51	95.76	0.0042	5053	33	20.68	601.9		0.532	1	53.2	10.231	0.0042	1492.052	1.5158	31.9091	21.0507	2261.68	0.7159	0.4859
0.542	1	54.2	0.53	95.53	0.0028	5332	33	20.68	597.2		0.542	1	54.2	10.233	0.0028	1497.366	1.4502	31.8911	21.991	2171.461	0.754	0.49
0.552	1	55.2	0.63	95.58	0.001	5251	35	20.69	596.9		0.552	1	55.2	10.243	0.001	1497.734	1.4673	33.7288	22.9877	2197.555	0.7441	0.4903
0.562	1	56.2	0.67	95.62	0.002	4911	36	20.68	604.4		0.562	1	56.2	10.247	0.002	1497.443	1.5485	34.6534	22.3787	2318.789	0.6969	0.4836
0.572	1	57.2	0.67	95.91	0.0039	4960	37	20.68	603.8		0.572	1	57.2	10.247	0.0039	1491.123	1.5363	35.616	23.1836	2290.748	0.704	0.4842
0.582	1	58.2	0.72	95.81	0.0028	4873	39	20.68	601.8		0.582	1	58.2	10.252	0.0028	1494.025	1.5573	37.4884	24.072	2326.713	0.6918	0.4859
0.592	1	59.2	0.72	95.64	0.0023	4903	40	20.68	598.1		0.592	1	59.2	10.252	0.0023	1497.736	1.5498	38.4497	24.8101	2321.127	0.6962	0.4892
0.602	1	60.2	0.66	95.71	0.003	4901	41	20.68	593.8		0.602	1	60.2	10.246	0.003	1495.33	1.5512	39.4775	25.4502	2319.51	0.6954	0.4932
0.612	1	61.2	0.67	95.8	0.0017	4866	43	20.69	589.7		0.612	1	61.2	10.247	0.0017	1493.514	1.5599	41.3916	26.535	2329.711	0.6903	0.497
0.622	1	62.2	0.67	95.62	0.0029	4874	45	20.68	587.4		0.622	1	62.2	10.247	0.0029	1497.443	1.5579	43.3168	27.8055	2332.792	0.6915	0.4991
0.632	1	63.2	0.62	95.49	0.0034	4833	46	20.68	586.4		0.632	1	63.2	10.242	0.0034	1499.561	1.5691	44.3417	28.2595	2352.945	0.685	0.5
0.642	1	64.2	0.57	95.61	0.0024	4733	47	20.68	585		0.642	1	64.2	10.237	0.0024	1496.2	1.5959	45.3695	28.4284	2387.821	0.6694	0.5014
0.652	1	65.2	0.52	95.69	0.0024	4740	48	20.68	582.9		0.652	1	65.2	10.232	0.0024	1493.723	1.5949	46.4002	29.0937	2382.27	0.67	0.5033
0.662	1	66.2	0.47	95.39	0.0039	4861	49	20.69	581		0.662	1	66.2	10.227	0.0039	1499.56	1.5642	47.4337	30.3243	2345.63	0.6878	0.5051
0.672	1	67.2	0.46	95.56	0.0038	4790	50	20.68	580.5		0.672	1	67.2	10.226	0.0038	1495.685	1.5827	48.4154	30.5908	2367.188	0.6771	0.5056
0.682	1	68.2	0.45	95.4	0.0031	4731	52	20.68	577.9		0.682	1	68.2	10.225	0.0031	1499.047	1.5983	50.3662	31.5118	2395.966	0.668	0.5081
0.692	1	69.2	0.42	95.65	0.0042	4889	53	20.69	573.2		0.692	1	69.2	10.222	0.0042	1493.135	1.5578	51.3782	32.9802	2326.079	0.6915	0.5127
0.702	1	70.2	0.39	95.73	0.0039	4690	55	20.68	567.5		0.702	1	70.2	10.219	0.0039	1490.954	1.6102	53.3622	33.1403	2400.719	0.6611	0.5184
0.712	1	71.2	0.34	95.68	0.0033	4798	57	20.68	565.2		0.712	1	71.2	10.214	0.0033	1491.313	1.5825	55.3808	34.9968	2359.933	0.6772	0.5207
0.722	1	72.2	0.29	95.67	0.0044	4794	58	20.68	564.3		0.722	1	72.2	10.209	0.0044	1490.8	1.5843	56.4321	35.6202	2361.83	0.6762	0.5217
0.732	1	73.2	0.28	95.72	0.0039	4673	60	20.68	567.1		0.732	1	73.2	10.208	0.0039	1489.567	1.6165	58.3945	36.1241	2407.88	0.6575	0.5189
0.742	1	74.2	0.04	95.31	0.0032	4722	63	20.68	569.7		0.742	1	74.2	10.184	0.0032	1495.009	1.6072	61.7321	38.4108	2402.713	0.6629	0.5162
0.752	1	75.2	0	95.4	0.004	4730	66	20.68	570.9		0.752	1	75.2	10.18	0.004	1492.45	1.6057	64.7451	40.3231	2396.363	0.6638	0.515
0.762	1	76.2	-0.01	95.42	0.0036	4718	70	20.68	572.6		0.762	1	76.2	10.179	0.0036	1491.866	1.609	68.6886	42.6899	2400.432	0.6618	0.5133
0.772	1	77.2	-0.01	94.89	0.0019	4600	72	20.69	573.9		0.772	1	77.2	10.179	0.0019	1503.545	1.641	70.6511	43.0525	2467.385	0.6432	0.512
0.782	1	78.2	-0.02	94.84	0.003	4591	76	20.68	571.2		0.782	1	78.2	10.178	0.003	1504.509	1.6437	74.5973	45.3839	2472.953	0.6417	0.5147
0.792	1	79.2	-0.07	94.96	0.0019	4523	78	20.69	566.8		0.792	1	79.2	10.173	0.0019	1501.107	1.6635	76.6691	46.0884	2497.126	0.6302	0.5191
0.802	1	80.2	-0.02	95.05	0.0011	4509	82	20.69	561.4		0.802	1	80.2	10.178	0.0011	1499.853	1.6667	80.4866	48.2919	2499.756	0.6284	0.5247
0.812	1	81.2	-0.03	94.76	0.0016	4529	85	20.69	552.4		0.812	1	81.2	10.177	0.0016	1506.142	1.6612	83.4548	50.2384	2501.968	0.6316	0.5341
0.822	1	82.2	-0.05	94.85	0.0017	4531	88	20.69	544.4		0.822	1	82.2	10.175	0.0017	1503.843	1.6609	86.4493	52.0485	2497.792	0.6317	0.5427
0.832	1	83.2	-0.05	94.73	0.002	4478	90	20.68	537.9		0.832	1	83.2	10.175	0.002	1506.515	1.676	88.4141	52.7533	2524.907	0.623	0.5499
0.842	1	84.2	0	94.94	0.0021	4449	93	20.69	536.5		0.842	1	84.2	10.18	0.0021	1502.583	1.6835	91.2318	54.1916	2529.603	0.6186	0.5516
0.852	1	85.2	0.05	94.95	0.0024	4357	93	20.68	534.6		0.852	1	85.2	10.185	0.0024	1503.099	1.7096	91.1026	53.2892	2569.682	0.6035	0.5537
0.862	1	86.2	0.1	95.08	0.0026	4409	94	20.68	532.9		0.862	1	86.2	10.19	0.0026	1500.957	1.6935	91.9518	54.2984	2541.802	0.6128	0.5557
0.872	1	87.2	0.07	95.31	0.0022	4466	94	20.68	528.6		0.872	1	87.2	10.187	0.0022	1495.449	1.6775	92.03	54.8628	2508.549	0.6221	0.5607
0.882	1	88.2	0.16	95.2	0.0017	4494	94	20.69	527.2		0.882	1	88.2	10.196	0.0017	1499.191	1.668	91.7957	55.034	2500.622	0.6276	0.5623
0.892	1	89.2	0.3	95.17	0.0022	4535	93	20.68	526.9		0.892	1	89.2	10.21	0.0022	1501.912	1.6541	90.4603	54.6878	2484.348	0.6357	0.5627
0.902	1	90.2	0.36	95.25	0.0017	4530	94	20.69	525.1		0.902	1	90.2	10.216	0.0017	1501.028	1.6546	91.2781	55.1678	2483.533	0.6354	0.5648
0.912	1	91.2	0.47	95.43	0.0018	4520	94	20.69	520.5		0.912	1	91.2	10.227	0.0018	1498.681	1.6556	90.9952	54.9626	2481.191	0.6348	0.5703
0.922	1	92.2	0.57	95.54	0.0014	4399	96	20.69	514.8		0.922	1	92.2	10.237	0.0014	1497.732	1.6886	92.6697	54.88	2529.053	0.6157	0.5772
0.932	1	93.2	0.66	95.02	0.0013	4333	95	20.69	488.4		0.932	1	93.2	10.246	0.0013	1510.541	1.7065	91.4722	53.6018	2577.761	0.6053	0.6118
0.942	1	94.2	0.72	95.01	0.0021	4529	93	20.69	482.1		0.942	1	94.2	10.252	0.0021	1511.648	1.649	89.3955	54.2111	2492.745	0.6386	0.6207
0.952	1	95.2	0.88	95.5	0.0015	4604	92	20.69	485.3		0.952	1	95.2	10.268	0.0015	1503.147	1.6257	88.0375	54.1527	2443.708	0.6521	0.6161
0.962	1	96.2	0.92	95.86	0.001	4722	90	20.69	487.4		0.962	1	96.2	10.272	0.001	1495.85	1.5934	86.027	53.99	2383.469	0.6709	0.6132
0.972	1	97.2	1.05	95.59	0.001	4511	90	20.7	488.9		0.972	1	97.2	10.285	0.001	1503.655	1.6488	85.7139	51.9867	2479.178	0.6388	0.6112
0.982	1	98.2	1.12	95.5	0.0006	4382	92	20.69	488		0.982	1	98.2	10.292	0.0006	1506.661	1.6845	87.4471	51.9126	2537.977	0.618	0.6124
0.992	1	99.2	1.22	95.32	0.001	4383	93	20.69	487.2		0.992	1	99.2	10.302	0.001	1512.109	1.6826	88.1505	52.3902	2544.242	0.6192	0.6135
1.002	1	100.2	1.27	95.7	0.0014	4457	93	20.69	483.7		1.002	1	100.2	10.307	0.0014	1504.452	1.6605	88.0274	53.0132	2498.115	0.632	0.6184
1.012	1	101.2	1.46	95.84	0.0019	4408	94	20.68	484.2		1.012	1	101.2	10.326	0.0019	1504.152	1.6714	88.5031	52.9503	2514.096	0.6256	0.6177
1.022	1	102.2	1.63	95.77	0.0014	4450	94	20.69	485.9		1.022	1	102.2	10.343	0.0014	1508.166	1.6567	88.0848	53.1692	2498.56	0.6342	0.6153
1.032	1	103.2	1.73	95.44	0.0009	4385	94	20.69	489.9		1.032	1	103.2	10.353	0.0009	1516.923	1.6737	87.84	52.4822	2538.89	0.6243	0.6098
1.042	1	104.2	3.12	95.88	0.0023	4330	94	20.68	493.6		1.042	1	104.2	10.492	0.0023	1527.442	1.6674	84.5343	50.699	2546.818	0.628	0.6047
1.052	1	105.2	3.44	95.7	0.0018	4335	95	20.69	495.5		1.052	1	105.2	10.524	0.0018	1536.126	1.6609	84.6895	50.9914	2551.287	0.6318	0.6021
1.062	1	106.2	3.29	999	0	4250	95	20.69	492.8		1.062	1	106.2	10.509	0.00095	1530.2165	1.6882	85.0372	50.3726	182.5554	0.6159	0.6058
1.072	1	107.2	3.24	96.1	0.0001	4216	95	20.7	482.6		1.072	1	107.2	10.504	0.0001	1524.307	1.6991	85.1535	50.1158	2590.005	0.6095	0.62
1.082	1	108.2	3.02	97.55	0.0002	4264	96	20.69	463.4		1.082	1	108.2	10.482	0.0002	1489.767	1.6883	86.5698	51.2748	2515.246	0.6158	0.6484
1.092	1	109.2	2.69	97.13	0.0001	4249	95	20.69	429		1.092	1	109.2	10.449	0.0001	1493.995	1.6982	86.448	50.9069	2537.038	0.6101	0.706
1.102	1	110.2	2.63	95.88	0.0011	4289	94	20.69	368.3		1.102	1	110.2	10.443	0.0011	1520.309	1.6872	85.6794	50.7809	2565.121	0.6165	0.8354
1.112	1	111.2	2.22	95.73	0.0033	4384	94	20.69	287.3		1.112	1	111.2	10.402	0.0033	1517.654	1.6661	86.6543	52.0098	2528.585	0.6287	1.099
1.122	1	112.2	4.75	96.27	0.0031	4367	94	20.68	221.7		1.122	1	112.2	10.655	0.0031	1542.415	1.6313	80.8764	49.5765	2516.213	0.6489	1.4626
1.132	1	113.2	6.35	999	0	6722	93	20.69	203.5		1.132	1	113.2	10.815	0	111.2872	1.1165	76.6748	68.6754	124.25	0.9475	1.6076
1.142	2	0.68	6.2	999	0	4335	92	20.69	233.2		1.142	2	0.7	10.8	0	111.1328	1.6184	76.1518	47.0534	179.8589	0.6564	1.383
1.152	2	1.68	6.26	101.71	0.0001	4277	91	20.68	297.6		1.152	2	1.7	10.806	0.0001	1450.081	1.634	75.2046	46.0251	2369.42	0.6473	1.0568
1.162	2	2.68	5.67	103.58	0.0001	4291	90	20.69	367.6		1.162	2	2.7	10.747	0.0001	1406.859	1.6389	75.5519	46.0981	2305.753	0.6445	0.8371
1.172	2	3.68	5.06	999	0	4468	89	20.69	423.2		1.172	2	3.7	10.686	0.0001	1411.0405	1.5986	75.9398	47.5046	175.7791	0.6679	0.7167
1.182	2	4.68	2.7	101.03	0.0001	4620	90	20.69	463.7		1.182	2	4.7	10.45	0.0001	1415.222	1.5931	81.8755	51.393	2254.626	0.671	0.6478
1.192	2	5.68	0.28	95.02	0.0004	4609	92	20.69	488.8		1.192	2	5.7	10.208	0.0004	1504.939	1.6339	89.5382	54.8	2458.933	0.6474	0.6113
1.202	2	6.68	-0.47	93.85	0.0009	4542	95	20.69	502.7		1.202	2	6.7	10.133	0.0009	1520.102	1.6647	94.4473	56.7348	2530.539	0.6295	0.5926
1.212	2	7.68	-0.55	94.44	0.0023	4462	98	20.69	510.2		1.212	2	7.7	10.125	0.0023	1505.576	1.6889	97.6524	57.8207	2542.741	0.6155	0.583
1.222	2	8.68	-0.55	94.18	0.0023	4415	102	20.7	513.1		1.222	2	8.7	10.125	0.0023	1511.42	1.7026	101.6382	59.6971	2573.29	0.6076	0.5794
1.232	2	9.68	-0.55	94.02	0.0023	4190	103	20.7	515		1.232	2	9.7	10.125	0.0023	1515.038	1.7709	102.6347	57.9568	2682.955	0.5679	0.577
1.242	2	10.68	-0.55	93.08	0.0015	4097	101	20.69	515.4		1.242	2	10.7	10.125	0.0015	1536.652	1.8006	100.6418	55.894	2766.872	0.5507	0.5765
1.252	2	11.68	-0.55	93.01	0.0017	4340	97	20.69	515.7		1.252	2	11.7	10.125	0.0017	1538.286	1.7248	96.656	56.0387	2653.247	0.5947	0.5762
1.262	2	12.68	-0.55	93.67	0.0063	4263	90	20.68	515.4		1.262	2	12.7	10.125	0.0063	1523.015	1.7482	89.6808	51.2993	2662.513	0.5811	0.5766
1.272	2	13.68	-0.55	94.13	0.0031	4571	82	20.68	515.9		1.272	2	13.7	10.125	0.0031	1512.549	1.6579	81.7092	49.2853	2507.625	0.6335	0.576
1.282	2	14.68	-0.52	94.55	0.0036	4632	75	20.69	520		1.282	2	14.7	10.128	0.0036	1503.563	1.6405	74.6701	45.5175	2466.551	0.6436	0.5709
1.292	2	15.68	-0.54	94.88	0.0031	4703	71	20.68	522		1.292	2	15.7	10.126	0.0031	1495.937	1.6215	70.728	43.6197	2425.615	0.6546	0.5685
1.302	2	16.68	-0.5	95.11	0.0045	4774	69	20.68	523.8		1.302	2	16.7	10.13	0.0045	1491.461	1.6019	68.6573	42.8601	2389.159	0.666	0.5663
1.312	2	17.68	-0.45	94.97	0.0046	4796	70	20.69	525.3		1.312	2	17.7	10.135	0.0046	1495.279	1.5953	69.5531	43.5984	2385.437	0.6698	0.5646
1.322	2	18.68	-0.4	95.03	0.0051	4531	73	20.68	524.2		1.322	2	18.7	10.14	0.0051	1494.693	1.6667	72.4307	43.4583	2491.165	0.6284	0.5658
1.332	2	19.68	-0.35	94.94	0.0035	4570	76	20.69	526.7		1.332	2	19.7	10.145	0.0035	1497.417	1.6549	75.3001	45.5015	2478.062	0.6352	0.5629
1.342	2	20.68	-0.25	94.47	0.0026	4587	78	20.68	528.4		1.342	2	20.7	10.155	0.0026	1509.364	1.6485	77.0621	46.746	2488.229	0.6389	0.5609
1.352	2	21.68	-0.25	94.22	0.0043	4512	79	20.68	525.3		1.352	2	21.7	10.155	0.0043	1514.993	1.6696	78.05	46.748	2529.418	0.6267	0.5645
1.362	2	22.68	-0.2	94.6	0.0032	4472	80	20.69	519.3		1.362	2	22.7	10.16	0.0032	1507.195	1.6802	78.9258	46.9744	2532.371	0.6205	0.5717
1.372	2	23.68	-0.15	94.78	0.004	4292	81	20.68	514.8		1.372	2	23.7	10.165	0.004	1503.921	1.7325	79.7989	46.0608	2605.498	0.5902	0.5773
1.382	2	24.68	-0.09	94.55	0.0067	4400	82	20.68	509.9		1.382	2	24.7	10.171	0.0067	1509.946	1.6993	80.6466	47.46	2565.78	0.6095	0.5834
1.392	2	25.68	-0.04	94.85	0.0087	4444	83	20.68	508.7		1.392	2	25.7	10.176	0.0087	1503.99	1.6856	81.5143	48.359	2535.14	0.6174	0.5849
1.402	2	26.68	-0.01	94.93	0.0079	4387	85	20.69	507.3		1.402	2	26.7	10.179	0.0079	1502.657	1.7017	83.4075	49.0133	2557.121	0.608	0.5867
1.412	2	27.68	-0.04	94.83	0.0071	4344	88	20.68	505.1		1.412	2	27.7	10.176	0.0071	1504.435	1.715	86.4248	50.3944	2580.06	0.6004	0.5895
1.422	2	28.68	-0.04	94.7	0.0064	4282	91	20.69	502.1		1.422	2	28.7	10.176	0.0064	1507.332	1.7336	89.3711	51.5514	2613.16	0.5895	0.5934
1.432	2	29.68	-0.04	94.45	0.0048	4213	94	20.68	499.5		1.432	2	29.7	10.176	0.0048	1512.935	1.7548	92.3174	52.6075	2654.952	0.5772	0.5969
1.442	2	30.68	-0.04	94.18	0.0052	4218	97	20.68	494.8		1.442	2	30.7	10.176	0.0052	1519.033	1.7533	95.2637	54.3345	2663.294	0.5781	0.6031
1.452	2	31.68	-0.04	94.16	0.0051	4204	99	20.67	490.1		1.452	2	31.7	10.176	0.0051	1519.486	1.7576	97.2279	55.3175	2670.703	0.5756	0.6095
1.462	2	32.68	-0.04	94.2	0.0053	4183	102	20.68	485.6		1.462	2	32.7	10.176	0.0053	1518.579	1.7642	100.1742	56.7817	2679.079	0.5718	0.6158
1.472	2	33.68	-0.04	94.07	0.0049	4086	104	20.68	480.9		1.472	2	33.7	10.176	0.0049	1521.531	1.7951	102.1384	56.898	2731.325	0.5539	0.6224
1.482	2	34.68	-0.04	93.93	0.0034	4120	105	20.68	476.2		1.482	2	34.7	10.176	0.0034	1524.723	1.7842	103.1205	57.7976	2720.361	0.5602	0.6292
1.492	2	35.68	-0.04	93.66	0.0024	4096	107	20.68	468.5		1.492	2	35.7	10.176	0.0024	1530.916	1.7919	105.0847	58.6449	2743.223	0.5558	0.6406
1.502	2	36.68	-0.09	93.71	0.0048	4103	107	20.68	458.9		1.502	2	36.7	10.171	0.0048	1529.014	1.7905	105.2339	58.7733	2737.708	0.5566	0.6554
1.512	2	37.68	-0.1	93.74	0.0042	3998	108	20.68	450.2		1.512	2	37.7	10.17	0.0042	1528.174	1.8251	106.2476	58.2142	2789.093	0.5365	0.6694
1.522	2	38.68	-0.15	93.29	0.0022	3984	108	20.67	444.7		1.522	2	38.7	10.165	0.0022	1537.821	1.8307	106.3985	58.1191	2815.287	0.5332	0.6786
1.532	2	39.68	-0.16	93.36	0.0038	4081	107	20.68	440.4		1.532	2	39.7	10.164	0.0038	1536.043	1.7989	105.4433	58.6168	2763.124	0.5517	0.6859
1.542	2	40.68	-0.14	93.69	0.0037	4061	106	20.68	438.1		1.542	2	40.7	10.166	0.0037	1528.722	1.805	104.3985	57.8379	2759.373	0.5481	0.6897
1.552	2	41.68	-0.19	93.46	0.0045	4027	104	20.67	436.5		1.552	2	41.7	10.161	0.0045	1533.273	1.8171	102.5743	56.4498	2786.096	0.5411	0.6926
1.562	2	42.68	-0.25	93.23	0.0032	4048	103	20.67	436.1		1.562	2	42.7	10.155	0.0032	1537.704	1.8112	101.7614	56.1834	2785.148	0.5445	0.6933
1.572	2	43.68	-0.24	93.34	0.0041	4023	101	20.68	438.1		1.572	2	43.7	10.156	0.0041	1535.299	1.8193	99.7571	54.8324	2793.184	0.5398	0.6898
1.582	2	44.68	-0.27	93.51	0.0032	4107	100	20.67	442.2		1.582	2	44.7	10.153	0.0032	1530.911	1.7924	98.8537	55.1519	2743.99	0.5555	0.6828
1.592	2	45.68	-0.24	93.63	0.004	4098	97	20.68	444.5		1.592	2	45.7	10.156	0.004	1528.597	1.7948	95.8063	53.381	2743.473	0.5541	0.6788
1.602	2	46.68	-0.24	93.69	0.0043	4142	96	20.68	449.1		1.602	2	46.7	10.156	0.0043	1527.218	1.7806	94.8186	53.2495	2719.438	0.5623	0.6712
1.612	2	47.68	-0.24	93.68	0.0042	4127	94	20.68	452.5		1.612	2	47.7	10.156	0.0042	1527.448	1.7854	92.8433	52.0003	2727.163	0.5595	0.6656
1.622	2	48.68	-0.24	93.77	0.0052	4036	93	20.68	456.7		1.622	2	48.7	10.156	0.0052	1525.383	1.815	91.8556	50.6088	2768.587	0.5423	0.6589
1.632	2	49.68	-0.15	93.86	0.0035	4110	92	20.68	460.7		1.632	2	49.7	10.165	0.0035	1524.674	1.7893	90.6358	50.6541	2728.112	0.5572	0.6525
1.642	2	50.68	0	93.97	0.0031	4150	91	20.67	463.3		1.642	2	50.7	10.18	0.0031	1524.409	1.7739	89.2698	50.3237	2704.165	0.5662	0.6485
1.652	2	51.68	-0.03	94.05	0.0029	4196	91	20.68	464.8		1.652	2	51.7	10.177	0.0029	1522.136	1.76	89.3458	50.7658	2678.895	0.5743	0.6462
1.662	2	52.68	-0.06	94.19	0.0031	4258	90	20.67	465.9		1.662	2	52.7	10.174	0.0031	1518.507	1.7413	88.4392	50.7893	2644.172	0.5851	0.6446
1.672	2	53.68	-0.08	94.2	0.0024	4169	90	20.67	468.4		1.672	2	53.7	10.172	0.0024	1517.982	1.7693	88.4894	50.0138	2685.763	0.5689	0.6408
1.682	2	54.68	-0.04	94.25	0.0026	4203	91	20.68	468.9		1.682	2	54.7	10.176	0.0026	1517.447	1.7579	89.3711	50.8384	2667.592	0.5754	0.6399
1.692	2	55.68	-0.04	93.85	0.002	4158	90	20.68	469.3		1.692	2	55.7	10.176	0.002	1526.553	1.7721	88.389	49.8788	2705.166	0.5672	0.6394
1.702	2	56.68	-0.05	94.02	0.0018	4120	90	20.69	468.1		1.702	2	56.7	10.175	0.0018	1522.52	1.7843	88.4141	49.55	2716.697	0.5601	0.6412
1.712	2	57.68	-0.05	93.89	0.0016	4112	89	20.68	467.5		1.712	2	57.7	10.175	0.0016	1525.487	1.7869	87.4317	48.9291	2725.906	0.5586	0.642
1.722	2	58.68	-0.1	93.97	0.0029	4132	88	20.67	465.7		1.722	2	58.7	10.17	0.0029	1522.911	1.7814	86.5721	48.5983	2712.887	0.5618	0.6448
1.732	2	59.68	-0.1	94.24	0.0039	4184	88	20.67	464.1		1.732	2	59.7	10.17	0.0039	1516.779	1.7649	86.5721	49.0514	2677.005	0.5714	0.6472
1.742	2	60.68	-0.12	94.25	0.0043	4253	88	20.67	462.4		1.742	2	60.7	10.168	0.0043	1516.254	1.7439	86.6213	49.6722	2644.132	0.5836	0.6498
1.752	2	61.68	-0.15	94.42	0.0043	4241	88	20.68	460.9		1.752	2	61.7	10.165	0.0043	1511.974	1.7481	86.6951	49.5949	2643.028	0.5812	0.6522
1.762	2	62.68	-0.16	94.49	0.003	4274	88	20.67	460.6		1.762	2	62.7	10.164	0.003	1510.253	1.7381	86.7197	49.8929	2624.995	0.5869	0.6527
1.772	2	63.68	-0.16	94.52	0.0029	4301	89	20.67	460.8		1.772	2	63.7	10.164	0.0029	1509.58	1.7299	87.7052	50.6991	2611.444	0.5917	0.6524
1.782	2	64.68	-0.15	94.54	0.0024	4260	90	20.67	459.3		1.782	2	64.7	10.165	0.0024	1509.28	1.7422	88.6654	50.8921	2629.506	0.5846	0.6547
1.792	2	65.68	-0.15	94.75	0.0018	4224	92	20.68	458.4		1.792	2	65.7	10.165	0.0018	1504.589	1.7533	90.6358	51.6938	2638.024	0.5781	0.6562
1.802	2	66.68	-0.1	94.2	0.0013	4122	93	20.68	460		1.802	2	66.7	10.17	0.0013	1517.684	1.7846	91.491	51.2675	2708.427	0.56	0.6537
1.812	2	67.68	-0.05	94	0.0021	4136	93	20.68	474.5		1.812	2	67.7	10.175	0.0021	1522.976	1.7792	91.3612	51.3487	2709.728	0.5631	0.6316
1.822	2	68.68	0.01	94.07	0.0018	4116	94	20.68	475.6		1.822	2	68.7	10.181	0.0018	1522.279	1.7846	92.1866	51.6575	2716.616	0.56	0.63
1.832	2	69.68	0.11	94.03	0.0015	4120	93	20.68	463		1.832	2	69.7	10.191	0.0015	1524.686	1.7815	90.9478	51.0501	2716.291	0.5618	0.6489
1.842	2	70.68	0.16	94.06	0.002	4127	92	20.68	438.8		1.842	2	70.7	10.196	0.002	1524.75	1.7784	89.8426	50.5179	2711.665	0.5636	0.6885
1.852	2	71.68	0.29	94.44	0.0022	4124	91	20.67	435.8		1.852	2	71.7	10.209	0.0022	1518.067	1.7771	88.5399	49.822	2697.793	0.5643	0.6938
1.862	2	72.68	0.35	94.23	0.0019	4151	90	20.68	434.7		1.862	2	72.7	10.215	0.0019	1523.717	1.7675	87.4186	49.4584	2693.196	0.5699	0.6957
1.872	2	73.68	0.45	94.5	0.002	4138	89	20.67	435.4		1.872	2	73.7	10.225	0.002	1519.091	1.7699	86.2037	48.7054	2688.636	0.5685	0.6946
1.882	2	74.68	0.53	94.65	0.0016	4221	88	20.68	438.1		1.882	2	74.7	10.233	0.0016	1516.899	1.7426	85.043	48.8026	2643.336	0.5843	0.6899
1.892	2	75.68	0.53	94.63	0.002	4223	88	20.67	438.3		1.892	2	75.7	10.233	0.002	1517.349	1.742	85.043	48.8199	2643.185	0.5847	0.6894
1.902	2	76.68	0.58	94.69	0.0021	4204	87	20.67	442.9		1.902	2	76.7	10.238	0.0021	1516.741	1.747	83.9582	48.0588	2649.733	0.5818	0.6816
1.912	2	77.68	0.58	94.65	0.002	4220	87	20.68	440.4		1.912	2	77.7	10.238	0.002	1517.64	1.742	83.9582	48.1951	2643.803	0.5847	0.6858
1.922	2	78.68	0.63	94.88	0.0017	4211	87	20.67	440.6		1.922	2	78.7	10.243	0.0017	1513.222	1.744	83.8401	48.0742	2639.021	0.5835	0.6855
1.932	2	79.68	1.09	95	0.0016	4206	86	20.68	438.8		1.932	2	79.7	10.289	0.0016	1517.328	1.7377	81.8127	47.0806	2636.685	0.5872	0.6885
1.942	2	80.68	2.12	95.56	0.0007	4287	86	20.68	436.7		1.942	2	80.7	10.392	0.0007	1519.965	1.6961	79.4992	46.8714	2578.03	0.6113	0.6923
1.952	2	81.68	3.17	95.71	0.0003	4207	85	20.68	435.4		1.952	2	81.7	10.497	0.0003	1531.961	1.703	76.336	44.8249	2608.901	0.6073	0.6945
1.962	2	82.68	3.27	999	0	4095	84	20.68	433.5		1.962	2	82.7	10.507	0.0008	1546.233	1.7357	75.2319	43.3427	187.6651	0.5883	0.6979
1.972	2	83.68	3.3	94.54	0.0013	4072	83	20.68	426.2		1.972	2	83.7	10.51	0.0013	1560.505	1.7425	74.2753	42.6265	2719.13	0.5844	0.711
1.982	2	84.68	3.42	95.51	0.0013	4115	82	20.68	413.3		1.982	2	84.7	10.522	0.0013	1540.105	1.727	73.1404	42.3499	2659.835	0.5934	0.7357
1.992	2	85.68	3.16	95.05	0.0003	4138	82	20.68	389.2		1.992	2	85.7	10.496	0.0003	1546.714	1.7242	73.662	42.7224	2666.845	0.595	0.786
2.002	2	86.68	3	95.04	0.0004	4144	80	20.67	350.6		2.002	2	86.7	10.48	0.0004	1544.584	1.725	72.181	41.8446	2664.376	0.5946	0.882
2.012	2	87.68	2.48	95.21	0.0006	4129	79	20.68	295.6		2.012	2	87.7	10.428	0.0006	1533.078	1.7382	72.3054	41.5968	2664.864	0.5869	1.065
2.022	2	88.68	4.23	96.13	0.0004	4066	77	20.68	237		2.022	2	88.7	10.603	0.0004	1538.004	1.7291	67.1855	38.8567	2659.302	0.5922	1.3588
2.032	2	89.68	5.33	999	0	4335	76	20.68	199.8		2.032	2	89.7	10.713	0	110.2376	1.6316	64.3806	39.4596	179.8589	0.6487	1.6404
2.042	3	0.42	5.96	999	0	5314	74	20.68	197.9		2.042	3	0.4	10.776	0	110.8859	1.381	61.6434	44.6373	153.1319	0.7941	1.6581
2.052	3	1.42	6.12	999	0	4287	74	20.68	233.7		2.052	3	1.4	10.792	0	111.0505	1.6332	61.3825	37.5831	181.3728	0.6478	1.3801
2.062	3	2.42	6.38	96.9	0.0002	4241	74	20.68	293.9		2.062	3	2.4	10.818	0.0002	1551.858	1.6425	60.9617	37.1141	2549	0.6424	1.0717
2.072	3	3.42	6.22	97.14	0.001	4021	75	20.68	354		2.072	3	3.4	10.802	0.001	1544.246	1.7111	62.0475	36.2611	2642.408	0.6026	0.8727
2.082	3	4.42	5.75	96.7	0.0001	4154	75	20.68	401.9		2.082	3	4.4	10.755	0.0001	1547.26	1.6779	62.826	37.4439	2596.104	0.6219	0.7587
2.092	3	5.42	2.72	94.57	0.0001	4160	74	20.68	433		2.092	3	5.4	10.452	0.0001	1551.202	1.7247	67.2829	39.0121	2675.304	0.5947	0.6988
2.102	3	6.42	1.08	94.07	0.0032	4116	74	20.67	450.9		2.102	3	6.4	10.288	0.0032	1538.278	1.766	70.4167	39.8733	2716.616	0.5708	0.6682
2.112	3	7.42	0	93.71	0.0053	4311	73	20.67	459.8		2.112	3	7.4	10.18	0.0053	1530.367	1.7242	71.612	41.534	2638.628	0.595	0.6539
2.122	3	8.42	-0.38	94.14	0.0135	4296	71	20.67	464		2.122	3	8.4	10.142	0.0135	1514.862	1.7352	70.4062	40.5756	2628.564	0.5886	0.6474
2.132	3	9.42	-0.55	94.19	0.0133	4249	71	20.67	467.7		2.132	3	9.4	10.125	0.0133	1511.194	1.7525	70.7482	40.3699	2648.365	0.5786	0.6418
2.142	3	10.42	-0.55	94.08	0.0146	4337	70	20.67	471.2		2.142	3	10.4	10.125	0.0146	1513.679	1.7257	69.7517	40.4192	2612.167	0.5941	0.6365
2.152	3	11.42	-0.55	94.14	0.0196	4362	70	20.67	477		2.152	3	11.4	10.125	0.0196	1512.323	1.7182	69.7517	40.5951	2598.517	0.5985	0.628
2.162	3	12.42	-0.56	94.13	0.0185	4245	69	20.66	483.3		2.162	3	12.4	10.124	0.0185	1512.399	1.7539	68.7749	39.2124	2652.607	0.5778	0.6189
2.172	3	13.42	-0.55	94.08	0.0157	4271	69	20.67	489.4		2.172	3	13.4	10.125	0.0157	1513.679	1.7457	68.7553	39.3848	2642.476	0.5825	0.6104
2.182	3	14.42	-0.56	94.13	0.0156	4231	68	20.66	495.1		2.182	3	14.4	10.124	0.0156	1512.399	1.7582	67.7782	38.5488	2659.167	0.5753	0.6027
2.192	3	15.42	-0.51	94.3	0.0145	4341	67	20.67	498.9		2.192	3	15.4	10.129	0.0145	1509.313	1.7238	66.6862	38.685	2601.793	0.5952	0.5976
2.202	3	16.42	-0.44	94.37	0.0121	4329	66	20.66	502		2.202	3	16.4	10.136	0.0121	1508.782	1.7262	65.56	37.9785	2604.516	0.5938	0.5935
2.212	3	17.42	-0.39	94.52	0.0099	4422	65	20.67	505.2		2.212	3	17.4	10.141	0.0099	1506.164	1.6978	64.4747	37.9748	2557.212	0.6103	0.5894
2.222	3	18.42	-0.35	94.88	0.0086	4371	65	20.66	505.6		2.222	3	18.4	10.145	0.0086	1498.744	1.7122	64.4014	37.6139	2566.104	0.602	0.5888
2.232	3	19.42	-0.25	94.87	0.0068	4436	64	20.67	504.7		2.232	3	19.4	10.155	0.0068	1500.443	1.6914	63.2304	37.3831	2537.873	0.614	0.59
2.242	3	20.42	-0.2	95.06	0.0068	4403	64	20.67	501.6		2.242	3	20.4	10.16	0.0068	1496.98	1.7002	63.1406	37.1369	2545.183	0.6089	0.5941
2.252	3	21.42	-0.09	95.22	0.0062	4462	65	20.67	499.4		2.252	3	21.4	10.171	0.0062	1495.076	1.6812	63.9272	38.0237	2513.588	0.6199	0.597
2.262	3	22.42	0	95.31	0.0069	4597	67	20.66	494		2.262	3	22.4	10.18	0.0069	1494.422	1.6417	65.7261	40.0351	2453.411	0.6429	0.6042
2.272	3	23.42	0.01	95.41	0.0065	4426	71	20.67	486.2		2.272	3	23.4	10.181	0.0065	1492.377	1.69	69.6303	41.2014	2522.115	0.6149	0.6148
2.282	3	24.42	0.01	95.16	0.006	4253	75	20.67	479.3		2.282	3	24.4	10.181	0.006	1497.867	1.7416	73.5532	42.2323	2608.732	0.5849	0.6247
2.292	3	25.42	0.05	94.61	0.0059	4132	80	20.67	477.6		2.292	3	25.4	10.185	0.0059	1510.679	1.7788	78.3678	44.0576	2687.135	0.5634	0.6272
2.302	3	26.42	0.04	94.29	0.006	4147	84	20.66	478.3		2.302	3	26.4	10.184	0.006	1517.735	1.7742	82.3095	46.3934	2692.712	0.566	0.6261
2.312	3	27.42	0.05	94.1	0.0056	4088	87	20.67	479.7		2.312	3	27.4	10.185	0.0056	1522.194	1.7929	85.225	47.5352	2729.115	0.5552	0.6241
2.322	3	28.42	0.1	93.96	0.0061	3989	88	20.66	480		2.322	3	28.4	10.19	0.0061	1526.135	1.8245	86.0825	47.1806	2784.485	0.5368	0.6237
2.332	3	29.42	0.1	93.9	0.0055	4030	89	20.67	481.4		2.332	3	29.4	10.19	0.0055	1527.507	1.8109	87.0608	48.0752	2766.208	0.5447	0.6217
2.342	3	30.42	0.11	93.95	0.0061	4032	89	20.67	479.6		2.342	3	30.4	10.191	0.0061	1526.513	1.8101	87.0361	48.0838	2763.131	0.5452	0.6243
2.352	3	31.42	0.1	93.97	0.0057	4025	88	20.66	475.6		2.352	3	31.4	10.19	0.0057	1525.906	1.8126	86.0825	47.4917	2765.825	0.5437	0.63
2.362	3	32.42	0.15	94.03	0.0056	4095	87	20.67	471		2.362	3	32.4	10.195	0.0056	1525.284	1.7889	84.9839	47.5072	2728.529	0.5575	0.6369
2.372	3	33.42	0.15	94.21	0.0061	4211	85	20.67	466		2.372	3	33.4	10.195	0.0061	1521.188	1.7522	83.0303	47.3867	2665.403	0.5788	0.6443
2.382	3	34.42	0.15	94.57	0.0072	4179	83	20.66	463.6		2.382	3	34.4	10.195	0.0072	1513.06	1.7622	81.0766	46.0096	2666.263	0.573	0.648
2.392	3	35.42	0.2	94.51	0.005	4170	81	20.67	463.8		2.392	3	35.4	10.2	0.005	1515.151	1.7641	79.0111	44.7877	2672.919	0.5719	0.6478
2.402	3	36.42	0.17	94.51	0.0062	4204	80	20.66	464.8		2.402	3	36.4	10.197	0.0062	1514.706	1.754	78.1019	44.5275	2656.818	0.5777	0.6462
2.412	3	37.42	0.15	94.61	0.0064	4251	78	20.66	464.6		2.412	3	37.4	10.195	0.0064	1512.162	1.7399	76.1925	43.7925	2630.939	0.5859	0.6464
2.422	3	38.42	0.15	94.78	0.0075	4242	77	20.67	463.4		2.422	3	38.4	10.195	0.0075	1508.359	1.7426	75.2157	43.1626	2628.487	0.5843	0.6483
2.432	3	39.42	0.14	94.62	0.0081	4338	75	20.66	463.6		2.432	3	39.4	10.194	0.0081	1511.79	1.7137	73.2828	42.7622	2590.797	0.6011	0.648
2.442	3	40.42	0.14	94.62	0.0083	4298	73	20.66	464.6		2.442	3	40.4	10.194	0.0083	1511.79	1.7257	71.3285	41.3324	2608.939	0.5941	0.6465
2.452	3	41.42	0.1	94.48	0.0144	4350	73	20.67	466.2		2.452	3	41.4	10.19	0.0144	1514.341	1.7108	71.4094	41.7397	2590.778	0.6028	0.6441
2.462	3	42.42	0.05	94.72	0.0147	4349	72	20.67	466.5		2.462	3	42.4	10.185	0.0147	1508.219	1.712	70.531	41.1988	2582.019	0.6021	0.6436
2.472	3	43.42	0.05	94.84	0.01	4310	71	20.67	467.5		2.472	3	43.4	10.185	0.01	1505.543	1.7236	69.5514	40.3516	2595.007	0.5953	0.6421
2.482	3	44.42	0.01	94.86	0.0078	4365	71	20.66	467		2.482	3	44.4	10.181	0.0078	1504.507	1.7079	69.6303	40.7698	2569.532	0.6045	0.6429
2.492	3	45.42	0.01	94.86	0.0074	4327	71	20.66	466.6		2.492	3	45.4	10.181	0.0074	1504.507	1.7192	69.6303	40.5014	2586.558	0.5979	0.6435
2.502	3	46.42	0.01	94.89	0.0087	4343	71	20.66	464.1		2.502	3	46.4	10.181	0.0087	1503.84	1.7144	69.6303	40.6144	2578.222	0.6007	0.6473
2.512	3	47.42	-0.04	94.84	0.0071	4329	72	20.66	463.3		2.512	3	47.4	10.176	0.0071	1504.213	1.7195	70.7112	41.1243	2586.421	0.5978	0.6485
2.522	3	48.42	-0.04	94.79	0.0074	4335	73	20.66	462.8		2.522	3	48.4	10.176	0.0074	1505.325	1.7177	71.6933	41.739	2585.632	0.5988	0.6493
2.532	3	49.42	0.06	94.87	0.0071	4292	75	20.66	462.7		2.532	3	49.4	10.186	0.0071	1505.024	1.7289	73.449	42.4831	2602.033	0.5923	0.6495
2.542	3	50.42	0.06	94.78	0.0065	4258	77	20.66	462.9		2.542	3	50.4	10.186	0.0065	1507.028	1.7392	75.4076	43.3565	2621.091	0.5863	0.6491
2.552	3	51.42	0.11	94.52	0.0069	4197	78	20.66	462.1		2.552	3	51.4	10.191	0.0069	1513.59	1.7572	76.2788	43.4086	2659.724	0.5759	0.6503
2.562	3	52.42	0.16	94.56	0.0075	4214	80	20.66	463.3		2.562	3	52.4	10.196	0.0075	1513.433	1.7511	78.124	44.6147	2650.147	0.5794	0.6485
2.572	3	53.42	0.2	94.51	0.0066	4137	81	20.66	463.5		2.572	3	53.4	10.2	0.0066	1515.151	1.7746	79.0111	44.5245	2688.718	0.5658	0.6482
2.582	3	54.42	0.29	94.51	0.0055	4161	82	20.66	463.3		2.582	3	54.4	10.209	0.0055	1516.488	1.7654	79.7832	45.1927	2677.211	0.5711	0.6485
2.592	3	55.42	0.35	94.63	0.0044	4166	82	20.66	461.3		2.592	3	55.4	10.215	0.0044	1514.68	1.7628	79.6481	45.1829	2670.066	0.5726	0.6516
2.602	3	56.42	0.53	94.82	0.0037	4164	82	20.66	460.1		2.602	3	56.4	10.233	0.0037	1513.086	1.7603	79.2446	45.0172	2663.514	0.5741	0.6534
2.612	3	57.42	0.61	94.72	0.0034	4083	83	20.66	459		2.612	3	57.4	10.241	0.0034	1516.511	1.7847	80.0304	44.8428	2706.5	0.5599	0.6553
2.622	3	58.42	0.62	94.61	0.0032	4188	83	20.66	457.9		2.622	3	58.4	10.242	0.0032	1519.134	1.7513	80.0079	45.6855	2660.421	0.5793	0.657
2.632	3	59.42	0.72	94.81	0.0032	4126	83	20.66	455.6		2.632	3	59.4	10.252	0.0032	1516.12	1.769	79.7831	45.0997	2682.07	0.569	0.6607
2.642	3	60.42	0.72	94.54	0.0033	4108	82	20.66	454.7		2.642	3	60.4	10.252	0.0033	1522.197	1.7748	78.8218	44.4126	2701.539	0.5657	0.662
2.652	3	61.42	0.66	94.46	0.0042	4172	81	20.66	450.8		2.652	3	61.4	10.246	0.0042	1523.116	1.7556	77.9921	44.4252	2673.953	0.5768	0.6684
2.662	3	62.42	0.66	94.65	0.0043	4179	79	20.66	447.5		2.662	3	62.4	10.246	0.0043	1518.826	1.7534	76.0664	43.3823	2663.102	0.5781	0.6739
2.672	3	63.42	0.65	94.65	0.0052	4208	78	20.65	446.1		2.672	3	63.4	10.245	0.0052	1518.678	1.7446	75.1247	43.0622	2649.426	0.5832	0.6762
2.682	3	64.42	0.67	94.63	0.0049	4152	76	20.66	446.8		2.682	3	64.4	10.247	0.0049	1519.425	1.7617	73.1572	41.5269	2676.744	0.5733	0.6749
2.692	3	65.42	0.62	94.71	0.005	4138	74	20.66	447.8		2.692	3	65.4	10.242	0.005	1516.884	1.767	71.3324	40.3701	2680.274	0.5702	0.6733
2.702	3	66.42	0.56	94.53	0.0049	4131	73	20.66	450		2.702	3	66.4	10.236	0.0049	1520.048	1.7702	70.4874	39.8186	2690.81	0.5683	0.6697
2.712	3	67.42	0.47	94.74	0.0046	4216	71	20.66	450.3		2.712	3	67.4	10.227	0.0046	1513.99	1.7452	68.7304	39.3835	2642.15	0.5829	0.6692
2.722	3	68.42	0.46	94.95	0.0055	4286	70	20.66	453.2		2.722	3	68.4	10.226	0.0055	1509.15	1.7239	67.7815	39.3176	2601.694	0.5952	0.6645
2.732	3	69.42	0.42	94.99	0.0052	4281	69	20.67	456		2.732	3	69.4	10.222	0.0052	1507.67	1.7261	66.8886	38.7506	2602.439	0.5939	0.6599
2.742	3	70.42	0.39	94.93	0.0047	4310	69	20.67	458.5		2.742	3	70.4	10.219	0.0047	1508.562	1.7179	66.9453	38.9693	2591.559	0.5987	0.6561
2.752	3	71.42	0.34	94.86	0.0051	4221	68	20.66	460.5		2.752	3	71.4	10.214	0.0051	1509.384	1.7458	66.0683	37.8434	2635.133	0.5825	0.6529
2.762	3	72.42	0.29	94.85	0.0047	4259	69	20.66	463.3		2.762	3	72.4	10.209	0.0047	1508.868	1.735	67.1347	38.6939	2617.919	0.5887	0.6484
2.772	3	73.42	0.3	94.78	0.0049	4156	69	20.66	465.4		2.772	3	73.4	10.21	0.0049	1510.578	1.7668	67.1157	37.9871	2668.897	0.5703	0.6452
2.782	3	74.42	0.2	94.49	0.0045	4159	69	20.66	468		2.782	3	74.4	10.2	0.0045	1515.602	1.7676	67.3058	38.0777	2678.962	0.5698	0.6414
2.792	3	75.42	0.16	94.39	0.0046	4126	68	20.66	469.1		2.792	3	75.4	10.196	0.0046	1517.262	1.7788	66.4054	37.3326	2698.833	0.5634	0.6397
2.802	3	76.42	0.14	94.41	0.0055	4169	68	20.66	468.9		2.802	3	76.4	10.194	0.0055	1516.513	1.7655	66.443	37.6346	2677.373	0.5711	0.64
2.812	3	77.42	0.04	94.33	0.0054	4193	70	20.66	467.5		2.812	3	77.4	10.184	0.0054	1516.83	1.7597	68.5913	38.9793	2669.145	0.5744	0.6421
2.822	3	78.42	-0.01	94.04	0.0046	4112	72	20.66	464.9		2.822	3	78.4	10.179	0.0046	1522.663	1.7862	70.6511	39.5537	2719.789	0.559	0.646
2.832	3	79.42	-0.02	93.78	0.005	4050	74	20.66	463.1		2.832	3	79.4	10.178	0.005	1528.458	1.8065	72.6342	40.2074	2761.142	0.5473	0.6488
2.842	3	80.42	-0.05	93.47	0.006	4027	75	20.66	459.2		2.842	3	80.4	10.175	0.006	1535.154	1.8146	73.6784	40.6033	2785.675	0.5426	0.6549
2.852	3	81.42	-0.1	93.4	0.0059	4001	77	20.65	455.8		2.852	3	81.4	10.17	0.0059	1536.022	1.8241	75.7506	41.5273	2801.878	0.5371	0.6603
2.862	3	82.42	-0.21	93.29	0.0075	3946	78	20.65	453.6		2.862	3	82.4	10.159	0.0075	1536.914	1.8446	76.9745	41.7292	2835.023	0.5252	0.6639
2.872	3	83.42	-0.31	92.91	0.0059	3860	79	20.65	453.7		2.872	3	83.4	10.149	0.0059	1544.279	1.8762	78.1834	41.6719	2897.323	0.5069	0.6637
2.882	3	84.42	-0.31	92.81	0.0066	3912	8	20.65	453.7		2.882	3	84.4	10.149	0.0066	1546.632	1.8581	7.9173	4.261	2873.773	0.5174	0.6636
2.892	3	85.42	-0.36	92.74	0.0068	3877	79	20.66	451.9		2.892	3	85.4	10.144	0.0068	1547.521	1.8711	78.2947	41.8433	2895.628	0.5098	0.6667
2.902	3	86.42	-0.41	92.72	0.0072	3905	77	20.65	449.8		2.902	3	86.4	10.139	0.0072	1547.23	1.8623	76.4213	41.0352	2881.46	0.5149	0.6701
2.912	3	87.42	-0.45	92.55	0.0062	3835	75	20.65	449.3		2.912	3	87.4	10.135	0.0062	1550.643	1.8876	74.5212	39.4797	2926.966	0.5002	0.6708
2.922	3	88.42	-0.44	92.6	0.0056	3917	72	20.66	450.6		2.922	3	88.4	10.136	0.0056	1549.61	1.8587	71.52	38.4776	2880.328	0.517	0.6687
2.932	3	89.42	-0.4	92.9	0.0059	3936	70	20.66	453.6		2.932	3	89.4	10.14	0.0059	1543.144	1.8515	69.4541	37.5125	2857.118	0.5212	0.6638
2.942	3	90.42	-0.4	93.09	0.0055	3913	68	20.65	456.8		2.942	3	90.4	10.14	0.0055	1538.695	1.8594	67.4697	36.286	2861.032	0.5166	0.6586
2.952	3	91.42	-0.4	93.23	0.0064	3984	64	20.65	457.2		2.952	3	91.4	10.14	0.0064	1535.433	1.8352	63.5009	34.6014	2817.844	0.5306	0.658
2.962	3	92.42	-0.4	93.37	0.0064	4050	62	20.66	458		2.962	3	92.4	10.14	0.0064	1532.185	1.8133	61.5165	33.9259	2778.248	0.5434	0.6568
2.972	3	93.42	-0.4	93.44	0.0058	3976	59	20.65	461.7		2.972	3	93.4	10.14	0.0058	1530.566	1.8379	58.5399	31.8514	2813.037	0.5291	0.651
2.982	3	94.42	-0.35	93.53	0.0057	3994	57	20.65	460.7		2.982	3	94.4	10.145	0.0057	1529.243	1.831	56.475	30.8446	2799.969	0.5331	0.6526
2.992	3	95.42	-0.25	93.62	0.0059	4003	54	20.66	460.3		2.992	3	95.4	10.155	0.0059	1528.677	1.8261	53.3507	29.215	2791.578	0.5359	0.6532
3.002	3	96.42	-0.15	93.71	0.0063	4053	51	20.65	460.1		3.002	3	96.4	10.165	0.0063	1528.112	1.8078	50.2437	27.7925	2762.544	0.5465	0.6534
3.012	3	97.42	-0.05	93.82	0.0061	4084	49	20.66	460.9		3.012	3	97.4	10.175	0.0061	1527.09	1.7959	48.1366	26.803	2742.563	0.5534	0.6523
3.022	3	98.42	-0.05	94.03	0.006	4149	46	20.66	463.2		3.022	3	98.4	10.175	0.006	1522.292	1.7751	45.1894	25.4574	2702.22	0.5655	0.6486
3.032	3	99.42	0	94.15	0.0054	4035	44	20.66	465.5		3.032	3	99.4	10.18	0.0054	1520.311	1.8111	43.1634	23.8332	2753.375	0.5446	0.6451
3.042	3	100.42	0	94.19	0.0053	4090	42	20.65	467		3.042	3	100.4	10.18	0.0053	1519.403	1.7931	41.2014	22.9776	2724.467	0.555	0.6429
3.052	3	101.42	0	94.45	0.005	4207	40	20.65	469.8		3.052	3	101.4	10.18	0.005	1513.53	1.756	39.2395	22.3458	2657.775	0.5766	0.6386
3.062	3	102.42	0	94.52	0.0046	4137	38	20.66	469.3		3.062	3	102.4	10.18	0.0046	1511.956	1.778	37.2775	20.9655	2688.319	0.5638	0.6394
3.072	3	103.42	0	94.44	0.0038	4073	37	20.65	471		3.072	3	103.4	10.18	0.0038	1513.755	1.7986	36.2965	20.1801	2722.681	0.5518	0.6368
3.082	3	104.42	0	94.26	0.0035	4049	35	20.66	471.4		3.082	3	104.4	10.18	0.0035	1517.817	1.8065	34.3345	19.0065	2741.879	0.5473	0.6362
3.092	3	105.42	0	94.16	0.0025	4046	33	20.65	472.7		3.092	3	105.4	10.18	0.0025	1520.084	1.8074	32.3726	17.9107	2747.469	0.5467	0.6343
3.102	3	106.42	-0.02	94.2	0.0024	4081	32	20.66	473.2		3.102	3	106.4	10.178	0.0024	1518.878	1.7964	31.4094	17.4848	2728.487	0.5531	0.6335
3.112	3	107.42	-0.05	94.34	0.0029	4141	30	20.65	473.8		3.112	3	107.4	10.175	0.0029	1515.264	1.7776	29.4714	16.5789	2693.596	0.564	0.6327
3.122	3	108.42	0	94.26	0.0026	4086	29	20.66	475.5		3.122	3	108.4	10.18	0.0026	1517.817	1.7944	28.4486	15.854	2723.587	0.5543	0.6301
3.132	3	109.42	-0.05	94.19	0.0034	4157	27	20.65	480.5		3.132	3	109.4	10.175	0.0034	1518.657	1.7726	26.5242	14.9638	2691.918	0.567	0.6229
3.142	3	110.42	-0.1	94.26	0.0034	4073	26	20.65	484.6		3.142	3	110.4	10.17	0.0034	1516.326	1.8004	25.5781	14.2069	2729.988	0.5508	0.6171
3.152	3	111.42	-0.35	93.93	0.0029	4078	24	20.65	485.7		3.152	3	111.4	10.145	0.0029	1520.078	1.8032	23.779	13.1871	2741.01	0.5492	0.6156
3.162	3	112.42	-0.29	94.24	0.0027	4176	21	20.65	487.1		3.162	3	112.4	10.151	0.0027	1513.945	1.7707	20.7711	11.7301	2680.817	0.568	0.6136
3.172	3	113.42	-0.3	94.6	0.0029	4190	20	20.66	486.4		3.172	3	113.4	10.15	0.0029	1505.711	1.7665	19.7876	11.2015	2659.871	0.5705	0.6146
3.182	3	114.42	-0.25	94.62	0.0027	4218	19	20.65	489		3.182	3	114.4	10.155	0.0027	1506.006	1.7569	18.7715	10.6844	2645.916	0.576	0.611
3.192	3	115.42	-0.25	94.71	0.0028	4205	17	20.64	492.3		3.192	3	115.4	10.155	0.0028	1503.999	1.761	16.7956	9.5378	2648.479	0.5737	0.6065
3.202	3	116.42	-0.25	94.75	0.0025	4238	16	20.64	495.8		3.202	3	116.4	10.155	0.0025	1503.108	1.7507	15.8076	9.0292	2631.51	0.5796	0.6018
3.212	3	117.42	-0.25	94.71	0.0024	4248	15	20.65	497.2		3.212	3	117.4	10.155	0.0024	1503.999	1.7476	14.8196	8.4798	2628.431	0.5814	0.5998
3.222	3	118.42	-0.25	94.71	0.0023	4273	14	20.64	499.3		3.222	3	118.4	10.155	0.0023	1503.999	1.74	13.8317	7.9494	2616.901	0.5859	0.5971
3.232	3	119.42	-0.25	94.82	0.0022	4316	14	20.65	497.6		3.232	3	119.4	10.155	0.0022	1501.552	1.7269	13.8317	8.0094	2593.056	0.5934	0.5994
3.242	3	120.42	-0.26	94.81	0.0029	4294	12	20.65	498.3		3.242	3	120.4	10.154	0.0029	1501.627	1.7337	11.8591	6.8402	2603.431	0.5895	0.5984
3.252	3	121.42	-0.25	94.85	0.0025	4297	12	20.65	499.6		3.252	3	121.4	10.155	0.0025	1500.887	1.7327	11.8557	6.8425	2600.526	0.5901	0.5967
3.262	3	122.42	-0.25	94.95	0.0026	4348	11	20.65	503.6		3.262	3	122.4	10.155	0.0026	1498.672	1.7173	10.8677	6.3283	2573.702	0.599	0.5915
3.272	3	123.42	-0.15	94.93	0.0023	4378	13	20.65	509.3		3.272	3	123.4	10.165	0.0023	1500.59	1.7067	12.8072	7.504	2561.104	0.6051	0.5842
3.282	3	124.42	-0.12	94.96	0.0022	4368	11	20.65	513.7		3.282	3	124.4	10.168	0.0022	1500.369	1.7092	10.8277	6.335	2564.407	0.6037	0.5786
3.292	3	125.42	-0.09	95.16	0.0021	4430	10	20.65	519.9		3.292	3	125.4	10.171	0.0021	1496.395	1.6905	9.8349	5.8178	2529.652	0.6146	0.5711
3.302	3	126.42	0.01	95.34	0.0026	4496	10	20.64	524.1		3.302	3	126.4	10.181	0.0026	1493.911	1.6699	9.8071	5.873	2494.635	0.6265	0.566
3.312	3	127.42	0.02	95.27	0.002	4486	9	20.64	523.2		3.312	3	127.4	10.182	0.002	1495.594	1.6726	8.8239	5.2757	2501.461	0.625	0.567
3.322	3	128.42	0.11	95.21	0.0017	4392	9	20.64	522.2		3.322	3	128.4	10.191	0.0017	1498.236	1.6983	8.8014	5.1826	2544.396	0.6101	0.5683
3.332	3	129.42	0.15	94.92	0.0014	4371	9	20.65	517.3		3.332	3	129.4	10.195	0.0014	1505.241	1.7038	8.7914	5.16	2564.589	0.6069	0.5742
3.342	3	130.42	0.26	94.76	0.001	4291	9	20.65	511.8		3.342	3	130.4	10.206	0.001	1510.433	1.7258	8.7641	5.0783	2606.726	0.5941	0.581
3.352	3	131.42	0.35	94.7	0.0009	4323	10	20.65	486.5		3.352	3	131.4	10.215	0.0009	1513.109	1.7147	9.7132	5.6647	2594.496	0.6005	0.6144
3.362	3	132.42	0.45	94.82	0.0009	4223	10	20.65	483.7		3.362	3	132.4	10.225	0.0009	1511.903	1.7433	9.6858	5.5559	2635.759	0.5839	0.6184
3.372	3	133.42	0.58	94.97	0.0015	4213	10	20.65	483		3.372	3	133.4	10.238	0.0015	1510.475	1.7442	9.6504	5.5328	2634.583	0.5834	0.6193
3.382	3	134.42	0.63	95.14	0.0013	4220	10	20.65	482.4		3.382	3	134.4	10.243	0.0013	1507.432	1.7412	9.6368	5.5346	2624.739	0.5852	0.6203
3.392	3	135.42	0.72	95.26	0.0013	4305	10	20.65	481.8		3.392	3	135.4	10.252	0.0013	1506.097	1.7139	9.6124	5.6086	2581.249	0.601	0.621
3.402	3	136.42	0.79	95.29	0.0012	4242	10	20.65	483		3.402	3	136.4	10.259	0.0012	1506.461	1.7317	9.5935	5.5398	2608.802	0.5906	0.6193
3.412	3	137.42	1.23	95.5	0.001	4307	10	20.65	482.8		3.412	3	137.4	10.303	0.001	1508.271	1.7048	9.4759	5.5584	2571.281	0.6063	0.6196
3.422	3	138.42	1.28	95.65	0.0008	4357	10	20.65	482.2		3.422	3	138.4	10.308	0.0008	1505.697	1.6892	9.4627	5.6019	2543.408	0.6153	0.6205
3.432	3	139.42	1.44	95.35	0.0013	4421	10	20.64	481.3		3.432	3	139.4	10.324	0.0013	1514.671	1.668	9.4205	5.6477	2526.507	0.6276	0.6218
3.442	3	140.42	1.59	95.95	0.003	4410	9	20.65	477.4		3.442	3	140.4	10.339	0.003	1503.636	1.6688	8.443	5.0595	2509.209	0.6272	0.6273
3.452	3	141.42	1.52	95.46	0.0036	4355	10	20.64	473.8		3.452	3	141.4	10.332	0.0036	1513.403	1.6859	9.3995	5.5755	2551.372	0.6173	0.6327
3.462	3	142.42	3.41	96.51	0.0011	4457	10	20.65	470.8		3.462	3	142.4	10.521	0.0011	1517.744	1.6267	8.922	5.4847	2468.924	0.6516	0.6371
3.472	3	143.42	3.27	96.23	0.0003	4267	10	20.65	466		3.472	3	143.4	10.507	0.0003	1521.871	1.6834	8.9562	5.3202	2561.985	0.6187	0.6443
3.482	3	144.42	3.2	999	0	4160	10	20.65	453		3.482	3	144.4	10.5	0.0005	1510.112	1.7168	8.9733	5.2268	185.491	0.5993	0.6648
3.492	3	145.42	2.8	97	0.0007	4246	9	20.65	427.9		3.492	3	145.4	10.46	0.0007	1498.353	1.6973	8.1651	4.8107	2543.106	0.6106	0.7079
3.502	3	146.42	2.84	98.38	0.0002	4201	10	20.65	386.2		3.502	3	146.4	10.464	0.0002	1469.869	1.7102	9.0623	5.2991	2513.726	0.6031	0.7928
3.512	3	147.42	2.79	98.09	0.0004	4237	10	20.65	330.5		3.512	3	147.4	10.459	0.0004	1475.176	1.7001	9.0748	5.3377	2507.986	0.609	0.9415
3.522	3	148.42	2.81	98.17	0.0005	4211	10	20.65	270.4		3.522	3	148.4	10.461	0.0005	1473.795	1.7076	9.0698	5.3113	2516.699	0.6046	1.1747
3.532	3	149.42	4.27	98.43	0.0004	4312	9	20.65	223.1		3.532	3	149.4	10.607	0.0004	1488.911	1.6545	7.8444	4.7413	2463.376	0.6355	1.4529
3.542	3	150.42	6.09	999	0	6750	8	20.64	197.9		3.542	3	150.4	10.789	0	111.0196	1.1147	6.6412	5.9577	123.7559	0.9485	1.6581
3.552	4	0.46	5.94	999	0	8343	9	20.65	203.3		3.552	4	0.5	10.774	0	110.8653	0.8952	7.5012	8.3791	99.2494	1.0759	1.6092
3.562	4	1.46	6.12	999	0	4364	9	20.64	233.8		3.562	4	1.5	10.792	0	111.0505	1.6115	7.4654	4.6327	178.9552	0.6604	1.3792
3.572	4	2.46	6.02	999	0	4175	9	20.65	286.5		3.572	4	2.5	10.782	0	110.9476	1.6674	7.4852	4.4891	184.9958	0.6279	1.1021
3.582	4	3.46	5.58	101.65	0.0001	4141	10	20.64	346.1		3.582	4	3.5	10.738	0.0001	1442.117	1.6844	8.4148	4.9956	2429.156	0.6181	0.8946
3.592	4	4.46	5.01	999	0	4240	10	20.64	399.1		3.592	4	4.5	10.681	0.00145	1487.1935	1.6639	8.544	5.1349	182.8774	0.63	0.7644
3.602	4	5.46	1	94.28	0.0028	4230	10	20.64	436.6		3.602	4	5.5	10.28	0.0028	1532.27	1.7319	9.5371	5.5068	2653.69	0.5906	0.6924
3.612	4	6.46	0.12	94.06	0.0022	4247	10	20.64	460.9		3.612	4	6.5	10.192	0.0022	1524.151	1.7416	9.7766	5.6136	2654.448	0.5849	0.6522
3.622	4	7.46	-0.26	94.16	0.0043	4237	10	20.64	473.4		3.622	4	7.5	10.154	0.0043	1516.201	1.7512	9.8826	5.6433	2655.162	0.5794	0.6332
3.632	4	8.46	-0.5	94.39	0.0047	4194	10	20.64	479.8		3.632	4	8.5	10.13	0.0047	1507.441	1.7688	9.9503	5.6256	2666.288	0.5692	0.6239
3.642	4	9.46	-0.5	94.36	0.0043	4234	10	20.64	482.9		3.642	4	9.5	10.13	0.0043	1508.114	1.7563	9.9503	5.6656	2648.658	0.5764	0.6195
3.652	4	10.46	-0.5	94.42	0.0035	4200	10	20.64	483.4		3.652	4	10.5	10.13	0.0035	1506.768	1.7669	9.9503	5.6316	2662.262	0.5703	0.6187
3.662	4	11.46	-0.52	94.34	0.0033	4154	10	20.64	484.7		3.662	4	11.5	10.128	0.0033	1508.265	1.7817	9.956	5.5878	2687.344	0.5616	0.6169
3.672	4	12.46	-0.5	94.17	0.0031	4083	11	20.64	486.1		3.672	4	12.5	10.13	0.0031	1512.392	1.8042	10.9454	6.0665	2728.724	0.5486	0.615
3.682	4	13.46	-0.5	94.09	0.003	4187	11	20.64	488.5		3.682	4	13.5	10.13	0.003	1514.2	1.771	10.9454	6.1805	2681.577	0.5679	0.6117
3.692	4	14.46	-0.45	94.14	0.0034	4164	10	20.64	491.8		3.692	4	14.5	10.135	0.0034	1513.816	1.7773	9.9362	5.5905	2690.567	0.5642	0.6072
3.702	4	15.46	-0.39	94.25	0.0036	4203	11	20.64	494.2		3.702	4	15.5	10.141	0.0036	1512.228	1.764	10.9111	6.1854	2667.592	0.5719	0.604
3.712	4	16.46	-0.34	94.36	0.0034	4217	11	20.64	494.7		3.712	4	16.5	10.146	0.0034	1510.496	1.7588	10.8956	6.195	2656.627	0.575	0.6032
3.722	4	17.46	-0.25	94.46	0.0031	4191	10	20.64	496.1		3.722	4	17.5	10.155	0.0031	1509.588	1.7653	9.8798	5.5965	2664.933	0.5711	0.6013
3.732	4	18.46	-0.19	94.47	0.0029	4205	11	20.64	497.2		3.732	4	18.5	10.161	0.0029	1510.256	1.7599	10.8492	6.1646	2657.926	0.5743	0.5999
3.742	4	19.46	-0.09	94.62	0.0026	4280	11	20.64	498.4		3.742	4	19.5	10.171	0.0026	1508.379	1.7351	10.8184	6.2351	2617.178	0.5887	0.5983
3.752	4	20.46	0.01	94.7	0.0026	4265	10	20.64	497.9		3.752	4	20.5	10.181	0.0026	1508.073	1.738	9.8071	5.6429	2620.969	0.587	0.599
3.762	4	21.46	0.01	94.84	0.0025	4321	10	20.64	499.7		3.762	4	21.5	10.181	0.0025	1504.952	1.721	9.8071	5.6985	2590.03	0.5969	0.5966
3.772	4	22.46	0.04	94.91	0.0023	4336	11	20.64	500.8		3.772	4	22.5	10.184	0.0023	1503.839	1.716	10.7786	6.2812	2580.6	0.5998	0.5951
3.782	4	23.46	0.06	94.85	0.0022	4286	10	20.64	502.3		3.782	4	23.5	10.186	0.0022	1505.469	1.7307	9.7932	5.6585	2605.539	0.5912	0.5931
3.792	4	24.46	0.06	94.77	0.0026	4256	11	20.64	504.3		3.792	4	24.5	10.186	0.0026	1507.251	1.7399	10.7725	6.1916	2622.402	0.5859	0.5906
3.802	4	25.46	0.06	94.83	0.0027	4216	10	20.65	506.7		3.802	4	25.5	10.186	0.0027	1505.914	1.7522	9.7932	5.5891	2638.635	0.5788	0.5874
3.812	4	26.46	0.06	94.88	0.0026	4211	10	20.64	507.6		3.812	4	26.5	10.186	0.0026	1504.801	1.7537	9.7932	5.5842	2639.021	0.5779	0.5864
3.822	4	27.46	0.11	94.89	0.0027	4292	11	20.64	510		3.822	4	27.5	10.191	0.0027	1505.318	1.7281	10.7573	6.2251	2601.265	0.5928	0.5833
3.832	4	28.46	0.06	94.93	0.0038	4320	11	20.64	512.6		3.832	4	28.5	10.186	0.0038	1503.691	1.7205	10.7725	6.2614	2587.04	0.5972	0.58
3.842	4	29.46	0.11	95.04	0.0031	4344	11	20.65	515		3.842	4	29.5	10.191	0.0031	1501.99	1.7124	10.7573	6.2818	2572.075	0.6018	0.577
3.852	4	30.46	0.05	95.16	0.0035	4363	10	20.64	518.8		3.852	4	30.5	10.185	0.0035	1498.455	1.7078	9.796	5.736	2559.078	0.6045	0.5724
3.862	4	31.46	0.06	95.07	0.0031	4366	10	20.65	516.1		3.862	4	31.5	10.186	0.0031	1500.589	1.7068	9.7932	5.7379	2561.139	0.6051	0.5757
3.872	4	32.46	0.05	94.83	0.0028	4247	10	20.64	518.2		3.872	4	32.5	10.185	0.0028	1505.766	1.7428	9.796	5.6209	2624.23	0.5842	0.5731
3.882	4	33.46	0.06	94.69	0.0039	4268	9	20.64	518.3		3.882	4	33.5	10.186	0.0039	1509.037	1.7362	8.8139	5.0766	2619.976	0.5881	0.5729
3.892	4	34.46	0.01	94.88	0.0034	4341	10	20.64	518.9		3.892	4	34.5	10.181	0.0034	1504.063	1.715	9.8071	5.7183	2579.5	0.6003	0.5723
3.902	4	35.46	0.01	94.93	0.0032	4225	10	20.64	517.8		3.902	4	35.5	10.181	0.0032	1502.952	1.7503	9.8071	5.6032	2630.549	0.5799	0.5736
3.912	4	36.46	0.01	94.88	0.0029	4289	9	20.65	512.5		3.912	4	36.5	10.181	0.0029	1504.063	1.7307	8.8264	5.1	2603.016	0.5913	0.5801
3.922	4	37.46	0.01	94.86	0.0029	4526	9	20.64	503.5		3.922	4	37.5	10.181	0.0029	1504.507	1.6614	8.8264	5.3127	2499.543	0.6315	0.5916
3.932	4	38.46	0.02	95.04	0.004	4583	9	20.64	492.5		3.932	4	38.5	10.182	0.004	1500.663	1.6453	8.8239	5.3632	2468.989	0.6408	0.6062
3.942	4	39.46	0.02	95.25	0.0032	4456	10	20.64	482.5		3.942	4	39.5	10.182	0.0032	1496.033	1.6812	9.8043	5.8319	2515.062	0.62	0.6201
3.952	4	40.46	0.02	95.22	0.0033	4669	9	20.65	476		3.952	4	40.5	10.182	0.0033	1496.693	1.6217	8.8239	5.4411	2427.196	0.6545	0.6295
3.962	4	41.46	-0.03	95.23	0.0032	4450	10	20.64	468.6		3.962	4	41.5	10.177	0.0032	1495.738	1.6837	9.8182	5.8313	2518.389	0.6185	0.6404
3.972	4	42.46	-0.02	94.66	0.003	4228	10	20.64	465.8		3.972	4	42.5	10.178	0.003	1508.522	1.7498	9.8154	5.6093	2639.676	0.5801	0.6446
3.982	4	43.46	0.03	94.54	0.0031	4286	10	20.64	460.1		3.982	4	43.5	10.183	0.0031	1511.952	1.7312	9.8015	5.6616	2617.532	0.5909	0.6534
3.992	4	44.46	-0.01	94.42	0.0028	4233	10	20.64	455.8		3.992	4	44.5	10.179	0.0028	1514.056	1.7481	9.8127	5.6132	2646.761	0.5811	0.6603
4.002	4	45.46	0.03	94.31	0.0033	4173	10	20.65	450.4		4.002	4	45.5	10.183	0.0033	1517.134	1.7661	9.8015	5.5497	2679.452	0.5707	0.6691
4.012	4	46.46	0.04	94.42	0.0038	4182	10	20.64	445.3		4.012	4	46.5	10.184	0.0038	1514.8	1.7631	9.7988	5.5576	2670.787	0.5724	0.6774
4.022	4	47.46	0.04	94.24	0.0028	4138	10	20.64	440.7		4.022	4	47.5	10.184	0.0028	1518.867	1.777	9.7988	5.5141	2699.062	0.5644	0.6853
4.032	4	48.46	0.04	94.15	0.0025	4166	11	20.64	438.8		4.032	4	48.5	10.184	0.0025	1520.908	1.7682	10.7786	6.096	2689.206	0.5695	0.6886
4.042	4	49.46	0.14	94.52	0.0029	4227	10	20.65	438.6		4.042	4	49.5	10.194	0.0029	1514.036	1.7474	9.771	5.5917	2645.633	0.5816	0.689
4.052	4	50.46	0.14	94.64	0.0028	4200	10	20.64	439.9		4.052	4	50.5	10.194	0.0028	1511.342	1.7558	9.771	5.5651	2653.579	0.5767	0.6866
4.062	4	51.46	0.13	94.52	0.0023	4174	11	20.64	442.1		4.062	4	51.5	10.193	0.0023	1513.887	1.7641	10.7512	6.0945	2670.619	0.5719	0.6829
4.072	4	52.46	0.16	94.46	0.0022	4193	11	20.64	444.2		4.072	4	52.5	10.196	0.0022	1515.683	1.7576	10.7421	6.1117	2663.986	0.5756	0.6793
4.082	4	53.46	0.12	94.43	0.0027	4155	10	20.64	443.3		4.082	4	53.5	10.192	0.0027	1515.764	1.7702	9.7766	5.5227	2683.268	0.5683	0.6809
4.092	4	54.46	0.15	94.45	0.0021	4103	10	20.64	443.5		4.092	4	54.5	10.195	0.0021	1515.76	1.7863	9.7683	5.4685	2707.588	0.559	0.6805
4.102	4	55.46	0.16	94.46	0.0024	4190	11	20.65	443.1		4.102	4	55.5	10.196	0.0024	1515.683	1.7586	10.7421	6.1085	2665.406	0.5751	0.6812
4.112	4	56.46	0.31	94.47	0.0024	4100	11	20.64	443.1		4.112	4	56.5	10.211	0.0024	1517.687	1.7845	10.6966	5.9943	2708.245	0.5601	0.6812
4.122	4	57.46	0.35	94.27	0.0019	4065	11	20.65	444.3		4.122	4	57.5	10.215	0.0019	1522.809	1.7951	10.6845	5.9522	2733.534	0.5539	0.6791
4.132	4	58.46	0.45	94.24	0.0018	4116	11	20.65	445.9		4.132	4	58.5	10.225	0.0018	1524.981	1.7769	10.6544	5.9961	2709.729	0.5644	0.6765
4.142	4	59.46	0.63	94.43	0.0025	4135	11	20.65	444.8		4.142	4	59.5	10.243	0.0025	1523.349	1.7677	10.6005	5.9966	2692.881	0.5698	0.6783
4.152	4	60.46	0.62	94.5	0.0023	4212	10	20.65	442.6		4.152	4	60.5	10.242	0.0023	1521.616	1.7438	9.6395	5.5278	2653.449	0.5836	0.6821
4.162	4	61.46	0.57	94.84	0.0027	4295	11	20.65	438.7		4.162	4	61.5	10.237	0.0027	1513.23	1.7194	10.6184	6.1757	2601.821	0.5978	0.6888
4.172	4	62.46	0.62	94.98	0.003	4266	10	20.65	435.6		4.172	4	62.5	10.242	0.003	1510.842	1.7273	9.6395	5.5807	2609.685	0.5932	0.6942
4.182	4	63.46	0.52	94.99	0.0025	4253	10	20.65	433.4		4.182	4	63.5	10.232	0.0025	1509.145	1.733	9.6667	5.5782	2615.273	0.5899	0.6981
4.192	4	64.46	0.51	95.04	0.0024	4272	11	20.65	433.1		4.192	4	64.5	10.231	0.0024	1507.885	1.7273	10.6364	6.1577	2604.631	0.5932	0.6985
4.202	4	65.46	0.53	95.24	0.0023	4320	10	20.65	433		4.202	4	65.5	10.233	0.0023	1503.747	1.7126	9.664	5.643	2575.255	0.6018	0.6987
4.212	4	66.46	0.44	95.25	0.0022	4245	10	20.66	435.2		4.212	4	66.5	10.224	0.0022	1502.204	1.7368	9.6885	5.5785	2608.956	0.5877	0.6948
4.222	4	67.46	0.48	95.03	0.0019	4259	10	20.64	438.2		4.222	4	67.5	10.228	0.0019	1507.665	1.7318	9.6776	5.5882	2610.973	0.5906	0.6896
4.232	4	68.46	0.45	94.88	0.0019	4314	9	20.65	442.5		4.232	4	68.5	10.225	0.0019	1510.563	1.7157	8.7172	5.0809	2591.663	0.5999	0.6822
4.242	4	69.46	0.35	95	0.002	4283	9	20.65	446		4.242	4	69.5	10.215	0.002	1506.415	1.7267	8.7419	5.0627	2601.143	0.5936	0.6764
4.252	4	70.46	0.25	95.23	0.0022	4356	10	20.64	450.9		4.252	4	70.5	10.205	0.0022	1499.853	1.7065	9.7407	5.7079	2559.552	0.6053	0.6682
4.262	4	71.46	0.23	95.25	0.0026	4494	9	20.65	456.7		4.262	4	71.5	10.203	0.0026	1499.118	1.6668	8.7716	5.2624	2498.785	0.6283	0.6589
4.272	4	72.46	0.14	95.32	0.0024	4357	9	20.65	463.2		4.272	4	72.5	10.194	0.0024	1496.257	1.7081	8.7939	5.1484	2555.727	0.6044	0.6487
4.282	4	73.46	0.1	95.2	0.0025	4446	9	20.65	467.8		4.282	4	73.5	10.19	0.0025	1498.309	1.6827	8.8039	5.232	2521.229	0.6191	0.6416
4.292	4	74.46	0.05	95.18	0.0027	4542	9	20.65	472.4		4.292	4	74.5	10.185	0.0027	1498.014	1.6562	8.8164	5.3232	2481.037	0.6344	0.6347
4.302	4	75.46	-0.02	95.23	0.0031	4453	9	20.65	476.4		4.302	4	75.5	10.178	0.0031	1495.885	1.6827	8.8339	5.2499	2517.095	0.6191	0.6288
4.312	4	76.46	-0.05	94.98	0.0024	4440	9	20.65	479.4		4.312	4	76.5	10.175	0.0024	1500.959	1.6869	8.8414	5.2411	2532.016	0.6166	0.6246
4.322	4	77.46	-0.1	94.87	0.0023	4398	9	20.65	480.3		4.322	4	77.5	10.17	0.0023	1502.66	1.7	8.854	5.2082	2554.53	0.609	0.6232
4.332	4	78.46	-0.2	95	0.0026	4492	10	20.65	480.3		4.332	4	78.5	10.16	0.0026	1498.304	1.6745	9.8657	5.8919	2508.853	0.6239	0.6232
4.342	4	79.46	-0.2	95.29	0.0027	4526	10	20.65	482.1		4.342	4	79.5	10.16	0.0027	1491.924	1.6648	9.8657	5.9261	2483.76	0.6295	0.6206
4.352	4	80.46	-0.21	95.34	0.0028	4503	10	20.65	485		4.352	4	80.5	10.159	0.0028	1490.682	1.6715	9.8685	5.904	2491.662	0.6256	0.6166
4.362	4	81.46	-0.27	95.24	0.0024	4513	10	20.65	487.5		4.362	4	81.5	10.153	0.0024	1491.991	1.6696	9.8854	5.9207	2491.081	0.6267	0.613
4.372	4	82.46	-0.35	95.06	0.0024	4424	9	20.65	489.9		4.372	4	82.5	10.145	0.0024	1494.769	1.6966	8.9171	5.2559	2535.994	0.611	0.6097
4.382	4	83.46	-0.4	94.93	0.0024	4492	9	20.65	489.2		4.382	4	83.5	10.14	0.0024	1496.9	1.6778	8.9298	5.3224	2511.445	0.6219	0.6107
4.392	4	84.46	-0.45	94.94	0.0027	4400	10	20.66	488.9		4.392	4	84.5	10.135	0.0027	1495.941	1.7053	9.9362	5.8267	2551.01	0.606	0.6111
4.402	4	85.46	-0.43	94.88	0.0026	4406	9	20.66	486.7		4.402	4	85.5	10.137	0.0026	1497.563	1.7032	8.9374	5.2475	2550.631	0.6072	0.6142
4.412	4	86.46	-0.45	94.82	0.0024	4427	10	20.65	483.6		4.412	4	86.5	10.135	0.0024	1498.595	1.6974	9.9362	5.8538	2543.68	0.6106	0.6185
4.422	4	87.46	-0.49	94.82	0.0024	4344	10	20.65	481.7		4.422	4	87.5	10.131	0.0024	1498.004	1.7226	9.9475	5.7747	2580.442	0.5959	0.6212
4.432	4	88.46	-0.49	94.55	0.0023	4395	10	20.66	479.3		4.432	4	88.5	10.131	0.0023	1504.008	1.7074	9.9475	5.826	2567.995	0.6047	0.6247
4.442	4	89.46	-0.44	94.45	0.0026	4238	10	20.65	478.6		4.442	4	89.5	10.136	0.0026	1506.988	1.754	9.9333	5.6633	2643.248	0.5777	0.6256
4.452	4	90.46	-0.41	94.31	0.0021	4192	11	20.65	477.2		4.452	4	90.5	10.139	0.0021	1510.578	1.7678	10.9173	6.1756	2670.414	0.5697	0.6276
4.462	4	91.46	-0.33	94.44	0.0018	4274	11	20.65	476.5		4.462	4	91.5	10.147	0.0018	1508.847	1.741	10.8925	6.2564	2626.947	0.5853	0.6287
4.472	4	92.46	-0.33	94.77	0.0023	4301	11	20.64	478.5		4.472	4	92.5	10.147	0.0023	1501.48	1.7328	10.8925	6.286	2601.783	0.59	0.6258
4.482	4	93.46	-0.27	94.88	0.002	4370	10	20.65	486.1		4.482	4	93.5	10.153	0.002	1499.926	1.7111	9.8854	5.7771	2566.548	0.6026	0.615
4.492	4	94.46	-0.25	94.91	0.0019	4399	11	20.65	488.3		4.492	4	94.5	10.155	0.0019	1499.557	1.7022	10.8677	6.3844	2552.581	0.6078	0.612
4.502	4	95.46	-0.18	95.06	0.0018	4476	11	20.65	489		4.502	4	95.5	10.162	0.0018	1497.274	1.6787	10.8461	6.461	2513.489	0.6214	0.611
4.512	4	96.46	-0.12	95.26	0.0021	4474	11	20.65	487.5		4.512	4	96.5	10.168	0.0021	1493.756	1.6783	10.8277	6.4516	2506.96	0.6216	0.6131
4.522	4	97.46	-0.12	95.32	0.0018	4463	11	20.65	487		4.522	4	97.5	10.168	0.0018	1492.441	1.6815	10.8277	6.4395	2509.469	0.6198	0.6137
4.532	4	98.46	-0.07	95.27	0.0018	4455	11	20.65	484.2		4.532	4	98.5	10.173	0.0018	1494.271	1.6829	10.8123	6.4247	2514.754	0.619	0.6177
4.542	4	99.46	-0.02	95.26	0.0019	4485	11	20.65	485.3		4.542	4	99.5	10.178	0.0019	1495.225	1.6735	10.797	6.4517	2502.256	0.6244	0.6161
4.552	4	100.46	-0.05	95.3	0.0019	4509	11	20.66	485		4.552	4	100.5	10.175	0.0019	1493.907	1.6672	10.8062	6.4818	2490.58	0.6281	0.6166
4.562	4	101.46	-0.02	95.28	0.0019	4476	10	20.66	484.3		4.562	4	101.5	10.178	0.0019	1494.786	1.6761	9.8154	5.8562	2505.368	0.6229	0.6175
4.572	4	102.46	-0.03	95.23	0.0019	4450	10	20.65	483.3		4.572	4	102.5	10.177	0.0019	1495.738	1.6837	9.8182	5.8313	2518.389	0.6185	0.619
4.582	4	103.46	-0.03	95.06	0.0017	4384	10	20.65	481.2		4.582	4	103.5	10.177	0.0017	1499.484	1.703	9.8182	5.7654	2553.547	0.6073	0.6219
4.592	4	104.46	-0.08	94.92	0.0019	4356	10	20.66	480.1		4.592	4	104.5	10.172	0.0019	1501.846	1.7121	9.8322	5.7428	2571.267	0.602	0.6236
4.602	4	105.46	-0.08	94.91	0.002	4366	11	20.65	479		4.602	4	105.5	10.172	0.002	1502.067	1.7091	10.8154	6.3281	2567.19	0.6038	0.6251
4.612	4	106.46	-0.14	94.88	0.002	4372	10	20.65	478.2		4.612	4	106.5	10.166	0.002	1501.847	1.7083	9.8489	5.7652	2565.66	0.6042	0.6263
4.622	4	107.46	-0.19	94.87	0.0023	4452	10	20.66	475.3		4.622	4	107.5	10.161	0.0023	1501.33	1.6858	9.8629	5.8506	2530.917	0.6173	0.6304
4.632	4	108.46	-0.19	94.92	0.0023	4368	10	20.66	471.1		4.632	4	108.5	10.161	0.0023	1500.222	1.7104	9.8629	5.7666	2565.922	0.603	0.6367
4.642	4	109.46	-0.19	94.82	0.0022	4304	10	20.66	465.6		4.642	4	109.5	10.161	0.0022	1502.44	1.7295	9.8629	5.7027	2598.497	0.5919	0.6449
4.652	4	110.46	-0.18	94.55	0.0021	4287	10	20.65	462		4.652	4	110.5	10.162	0.0021	1508.61	1.7345	9.8601	5.6847	2616.685	0.589	0.6505
4.662	4	111.46	-0.22	94.35	0.0024	4216	10	20.66	458.7		4.662	4	111.5	10.158	0.0024	1512.507	1.757	9.8713	5.6182	2657.493	0.576	0.6558
4.672	4	112.46	-0.2	94.38	0.002	4256	10	20.66	454.9		4.672	4	112.5	10.16	0.002	1512.13	1.7443	9.8657	5.6559	2637.623	0.5833	0.6617
4.682	4	113.46	-0.23	94.36	0.002	4202	10	20.66	450.1		4.682	4	113.5	10.157	0.002	1512.133	1.7615	9.8741	5.6054	2663.695	0.5733	0.6694
4.692	4	114.46	-0.17	94.17	0.002	4179	10	20.66	447.8		4.692	4	114.5	10.163	0.002	1517.319	1.7677	9.8573	5.5763	2682.187	0.5698	0.6732
4.702	4	115.46	-0.17	94.1	0.002	4136	10	20.66	446.3		4.702	4	115.5	10.163	0.002	1518.906	1.7813	9.8573	5.5337	2705.678	0.5619	0.6758
4.712	4	116.46	-0.17	93.98	0.0019	4143	10	20.67	446.4		4.712	4	116.5	10.163	0.0019	1521.635	1.7791	9.8573	5.5406	2707.146	0.5632	0.6756
4.722	4	117.46	-0.18	93.93	0.0021	4133	10	20.67	444.8		4.722	4	117.5	10.162	0.0021	1522.625	1.7825	9.8601	5.5317	2714.027	0.5612	0.6783
4.732	4	118.46	-0.17	93.79	0.0016	4070	9	20.68	441.7		4.732	4	118.5	10.163	0.0016	1525.976	1.8026	8.8716	4.9215	2750.746	0.5495	0.6836
4.742	4	119.46	-0.18	93.61	0.0016	4052	9	20.67	439.2		4.742	4	119.5	10.162	0.0016	1529.961	1.8087	8.8741	4.9064	2767.205	0.546	0.6879
4.752	4	120.46	-0.12	93.52	0.0016	4064	11	20.67	437		4.752	4	120.5	10.168	0.0016	1532.942	1.8037	10.8277	6.0031	2764.943	0.5489	0.6917
4.762	4	121.46	-0.14	93.5	0.0016	4077	9	20.67	434.5		4.762	4	121.5	10.166	0.0016	1533.102	1.7998	8.864	4.925	2759.283	0.5512	0.696
4.772	4	122.46	-0.13	93.66	0.0016	4068	9	20.67	432.3		4.772	4	122.5	10.167	0.0016	1529.562	1.8026	8.8615	4.9161	2757.123	0.5496	0.7
4.782	4	123.46	-0.08	93.64	0.0014	4135	9	20.67	429.9		4.782	4	123.5	10.172	0.0014	1530.775	1.7801	8.8489	4.9711	2724.896	0.5626	0.7044
4.792	4	124.46	-0.02	93.63	0.0013	4070	9	20.67	428.3		4.792	4	124.5	10.178	0.0013	1531.908	1.8	8.8339	4.9078	2757.37	0.5511	0.7073
4.802	4	125.46	0.03	93.51	0.0013	4046	9	20.67	427.4		4.802	4	125.5	10.183	0.0013	1535.434	1.8069	8.8214	4.882	2774.396	0.547	0.7088
4.812	4	126.46	0.08	93.56	0.0012	4083	9	20.67	428		4.812	4	126.5	10.188	0.0012	1535.031	1.794	8.8089	4.9103	2753.803	0.5545	0.7078
4.822	4	127.46	0.18	93.7	0.0012	4022	9	20.67	429		4.822	4	127.5	10.198	0.0012	1533.303	1.8121	8.784	4.8473	2778.571	0.544	0.706
4.832	4	128.46	0.19	93.72	0.0012	4079	9	20.66	429.3		4.832	4	128.5	10.199	0.0012	1532.993	1.7933	8.7815	4.8967	2749.165	0.5549	0.7054
4.842	4	129.46	0.2	93.82	0.0011	4102	8	20.67	429.7		4.842	4	129.5	10.2	0.0011	1530.842	1.7857	7.8036	4.3699	2733.681	0.5593	0.7046
4.852	4	130.46	0.29	93.73	0.0011	4063	8	20.67	425.9		4.852	4	130.5	10.209	0.0011	1534.265	1.7968	7.7837	4.3321	2756.715	0.5529	0.7116
4.862	4	131.46	0.32	93.76	0.0011	4089	9	20.67	412.4		4.862	4	131.5	10.212	0.0011	1534.024	1.7878	8.7493	4.8938	2742.56	0.5581	0.7373
4.872	4	132.46	0.4	93.72	0.0011	4039	10	20.67	412.4		4.872	4	132.5	10.22	0.0011	1536.149	1.8027	9.6995	5.3806	2769.157	0.5495	0.7374
4.882	4	133.46	0.51	93.74	0.0009	4058	9	20.67	411		4.882	4	133.5	10.231	0.0009	1537.34	1.7945	8.7025	4.8495	2758.798	0.5542	0.7402
4.892	4	134.46	0.54	93.79	0.0009	4123	9	20.67	412.1		4.892	4	134.5	10.234	0.0009	1536.637	1.7731	8.6951	4.9039	2724.612	0.5666	0.738
4.902	4	135.46	0.61	93.83	0.0009	4059	10	20.68	412.6		4.902	4	135.5	10.241	0.0009	1536.765	1.7924	9.6422	5.3794	2754.573	0.5554	0.737
4.912	4	136.46	0.68	94.06	0.0008	4136	10	20.67	416.2		4.912	4	136.5	10.248	0.0008	1532.526	1.7666	9.6232	5.4475	2707.296	0.5704	0.7299
4.922	4	137.46	0.73	94.36	0.0008	4161	10	20.67	417.2		4.922	4	137.5	10.253	0.0008	1526.426	1.7578	9.6097	5.4668	2683.19	0.5755	0.728
4.932	4	138.46	0.83	94.45	0.0008	4137	10	20.67	418.2		4.932	4	138.5	10.263	0.0008	1525.87	1.7637	9.5827	5.4334	2691.116	0.5721	0.726
4.942	4	139.46	1.18	94.73	0.0009	4159	10	20.67	417.6		4.942	4	139.5	10.298	0.0009	1524.726	1.7508	9.4892	5.42	2669.443	0.5796	0.7273
4.952	4	140.46	1.49	94.52	0.0015	4068	10	20.67	418.5		4.952	4	140.5	10.329	0.0015	1534.086	1.7743	9.4073	5.302	2721.906	0.566	0.7256
4.962	4	141.46	1.59	94.39	0.0016	4169	10	20.67	419.5		4.962	4	141.5	10.339	0.0016	1538.542	1.7407	9.3812	5.3892	2678.169	0.5854	0.7237
4.972	4	142.46	3.81	95.34	0.0007	4148	11	20.67	419.6		4.972	4	142.5	10.561	0.0007	1549.67	1.7105	9.7079	5.6754	2650.751	0.6029	0.7235
4.982	4	143.46	3.4	95.51	0.0003	4086	11	20.67	414.3		4.982	4	143.5	10.52	0.0003	1539.813	1.7364	9.8169	5.6535	2673.756	0.5879	0.7337
4.992	4	144.46	3.31	999	0	4092	10	20.67	403.4		4.992	4	144.5	10.511	0	108.159	1.736	8.9464	5.1534	187.7666	0.5882	0.7556
5.002	4	145.46	3.01	999	0	4175	9	20.67	382.7		5.002	4	145.5	10.481	0	107.8503	1.7153	8.1181	4.7328	184.9958	0.6002	0.8008
5.012	4	146.46	3.03	999	0	4216	10	20.68	345.1		5.012	4	146.5	10.483	0	107.8709	1.7025	9.0152	5.2952	183.6545	0.6076	0.8977
5.022	4	147.46	2.8	99	0.0002	4300	9	20.68	296		5.022	4	147.5	10.46	0.0002	1456.622	1.6813	8.1651	4.8565	2448.952	0.6199	1.0631
5.032	4	148.46	2.9	97.9	0.001	4267	9	20.68	245.5		5.032	4	148.5	10.47	0.001	1480.696	1.6894	8.1427	4.8199	2501.477	0.6152	1.3073
5.042	4	149.46	4.49	97.65	0.0014	4312	9	20.67	209.2		5.042	4	149.5	10.629	0.0014	1508.515	1.6511	7.7979	4.723	2490.646	0.6374	1.5594
5.052	4	150.46	6.41	999	0	11405	9	20.67	193.3		5.052	4	150.5	10.821	0	111.3489	0.5859	7.4084	12.6443	65.2401	1.2553	1.7017
5.062	5	0.48	6.38	999	0	5023	8	20.67	200.8		5.062	5	0.5	10.818	0	111.3181	1.4405	6.5905	4.5752	160.3513	0.7596	1.6314
5.072	5	1.48	6.48	999	0	4147	9	20.68	230.2		5.072	5	1.5	10.828	0	111.421	1.6686	7.3947	4.4316	185.9221	0.6272	1.4031
5.082	5	2.48	6.24	96.89	0.0002	4073	9	20.67	275.4		5.082	5	2.5	10.804	0.0002	1550.072	1.6947	7.4418	4.3911	2626.978	0.6121	1.1515
5.092	5	3.48	5.75	109.62	0.0001	4131	10	20.68	327.6		5.092	5	3.5	10.755	0.0001	1304.743	1.6848	8.3768	4.972	2198.218	0.6179	0.9508
5.102	5	4.48	5.14	999	0	4240	10	20.68	370.6		5.102	5	4.5	10.694	0.00025	1419.8635	1.6619	8.5143	5.1233	182.8774	0.6312	0.8297
5.112	5	5.48	1.09	94.22	0.0004	4328	10	20.68	404.4		5.112	5	5.5	10.289	0.0004	1534.984	1.7009	9.5131	5.5931	2610.799	0.6085	0.7534
5.122	5	6.48	0.54	94.02	0.002	4328	10	20.68	425.7		5.122	5	6.5	10.234	0.002	1531.348	1.71	9.6613	5.6498	2618.613	0.6032	0.712
5.132	5	7.48	0.19	94.08	0.0042	4243	10	20.67	443.6		5.132	5	7.5	10.199	0.0042	1524.742	1.7416	9.7572	5.6024	2655.526	0.5849	0.6804
5.142	5	8.48	-0.36	93.94	0.0083	4238	10	20.67	454		5.142	5	8.5	10.144	0.0083	1519.7	1.7526	9.9107	5.6548	2663.443	0.5785	0.6632
5.152	5	9.48	-0.34	94.02	0.0101	4232	9	20.67	459.3		5.152	5	9.5	10.146	0.0101	1518.181	1.7541	8.9146	5.0821	2663.073	0.5777	0.6547
5.162	5	10.48	-0.35	93.78	0.0086	4211	10	20.67	462.4		5.162	5	10.5	10.145	0.0086	1523.502	1.7608	9.9079	5.6269	2682.615	0.5738	0.6499
5.172	5	11.48	-0.41	93.79	0.0099	4333	10	20.67	462.6		5.172	5	11.5	10.139	0.0099	1522.372	1.7245	9.9248	5.7551	2625.369	0.5948	0.6496
5.182	5	12.48	-0.39	94	0.0107	4161	10	20.67	463.1		5.182	5	12.5	10.141	0.0107	1517.886	1.7772	9.9192	5.5812	2697.648	0.5642	0.6488
5.192	5	13.48	-0.38	93.76	0.008	4450	9	20.67	459.4		5.192	5	13.5	10.142	0.008	1523.509	1.6895	8.9247	5.2824	2574	0.6151	0.6545
5.202	5	14.48	-0.38	94.37	0.0143	4586	10	20.67	459.2		5.202	5	14.5	10.142	0.0143	1509.676	1.6509	9.9164	6.0066	2492.352	0.6375	0.6549
5.212	5	15.48	-0.29	94.48	0.0125	4489	9	20.67	462.6		5.212	5	15.5	10.151	0.0125	1508.545	1.6768	8.9019	5.3088	2529.534	0.6225	0.6495
5.222	5	16.48	-0.19	94.11	0.0079	4290	9	20.68	467.1		5.222	5	16.5	10.161	0.0079	1518.38	1.7338	8.8766	5.1199	2632.506	0.5895	0.6427
5.232	5	17.48	-0.09	93.85	0.0079	4134	10	20.67	469.8		5.232	5	17.5	10.171	0.0079	1525.803	1.7806	9.8349	5.5235	2716.798	0.5623	0.6386
5.242	5	18.48	-0.03	93.7	0.0078	4160	10	20.67	469.4		5.242	5	18.5	10.177	0.0078	1530.146	1.7713	9.8182	5.543	2710.299	0.5677	0.6393
5.252	5	19.48	0.06	93.76	0.0069	4168	10	20.68	467.8		5.252	5	19.5	10.186	0.0069	1530.119	1.7672	9.7932	5.5417	2703.997	0.5701	0.6417
5.262	5	20.48	0.17	93.77	0.0078	4239	10	20.68	465.7		5.262	5	20.5	10.197	0.0078	1531.541	1.7432	9.7627	5.6005	2669.773	0.584	0.6447
5.272	5	21.48	0.11	93.81	0.0082	4173	10	20.68	466.7		5.272	5	21.5	10.191	0.0082	1529.721	1.7647	9.7793	5.5415	2699.562	0.5715	0.6432
5.282	5	22.48	0.11	93.65	0.007	4099	10	20.67	470.5		5.282	5	22.5	10.191	0.007	1533.404	1.7883	9.7793	5.4686	2742.154	0.5578	0.6375
5.292	5	23.48	0.15	93.25	0.0073	3919	10	20.68	472.7		5.292	5	23.5	10.195	0.0073	1543.294	1.8473	9.7683	5.2879	2850.931	0.5236	0.6343
5.302	5	24.48	0.16	93.28	0.0063	4165	9	20.68	477.9		5.302	5	24.5	10.196	0.0063	1542.745	1.7664	8.789	4.9757	2725.092	0.5705	0.6267
5.312	5	25.48	0.13	93.86	0.0092	4226	10	20.67	481.7		5.312	5	25.5	10.193	0.0092	1528.874	1.7479	9.7738	5.5918	2672.295	0.5813	0.6213
5.322	5	26.48	0.12	94.19	0.0074	4106	9	20.67	483.6		5.322	5	26.5	10.192	0.0074	1521.194	1.7859	8.7989	4.927	2716.628	0.5593	0.6185
5.332	5	27.48	0.12	93.87	0.0061	4337	9	20.67	481.3		5.332	5	27.5	10.192	0.0061	1528.494	1.7144	8.7989	5.1325	2620.394	0.6007	0.6217
5.342	5	28.48	0.12	94.23	0.0139	4383	9	20.68	477.2		5.342	5	28.5	10.192	0.0139	1520.286	1.7007	8.7989	5.1736	2585.609	0.6086	0.6277
5.352	5	29.48	0.16	94.64	0.0086	4527	9	20.69	473.5		5.352	5	29.5	10.196	0.0086	1511.638	1.6586	8.789	5.2989	2507.27	0.633	0.6332
5.362	5	30.48	0.17	94.86	0.0075	4386	9	20.69	471.6		5.362	5	30.5	10.197	0.0075	1506.871	1.699	8.7865	5.1715	2560.209	0.6096	0.636
5.372	5	31.48	0.14	94.58	0.0063	4134	9	20.68	468.3		5.372	5	31.5	10.194	0.0063	1512.687	1.7766	8.7939	4.95	2687.368	0.5646	0.6409
5.382	5	32.48	0.11	94.04	0.005	4123	10	20.68	467.3		5.382	5	32.5	10.191	0.005	1524.458	1.7806	9.7793	5.4922	2714.423	0.5623	0.6424
5.392	5	33.48	0.07	93.88	0.0067	4027	10	20.69	465.9		5.392	5	33.5	10.187	0.0067	1527.516	1.8125	9.7904	5.4018	2768.549	0.5438	0.6445
5.402	5	34.48	0.12	93.78	0.0063	4010	10	20.68	465		5.402	5	34.5	10.192	0.0063	1530.56	1.8172	9.7766	5.3801	2781.313	0.5411	0.6459
5.412	5	35.48	0.12	93.79	0.0071	4006	10	20.69	463.7		5.412	5	35.5	10.192	0.0071	1530.33	1.8185	9.7766	5.3761	2782.927	0.5403	0.6479
5.422	5	36.48	0.07	93.67	0.0062	4035	11	20.69	461.8		5.422	5	36.5	10.187	0.0062	1532.341	1.8098	10.7695	5.9506	2773.255	0.5454	0.6508
5.432	5	37.48	0.07	93.69	0.0048	4068	10	20.68	458.6		5.432	5	37.5	10.187	0.0048	1531.88	1.799	9.7904	5.4421	2755.878	0.5516	0.6558
5.442	5	38.48	0.07	93.84	0.0062	4014	11	20.69	454.1		5.442	5	38.5	10.187	0.0062	1528.432	1.8168	10.7695	5.9279	2776.781	0.5413	0.663
5.452	5	39.48	0.08	93.93	0.0052	4032	11	20.68	450		5.452	5	39.5	10.188	0.0052	1526.521	1.8106	10.7664	5.9462	2763.959	0.5449	0.6696
5.462	5	40.48	0.03	94.03	0.0062	4095	11	20.68	448.8		5.462	5	40.5	10.183	0.0062	1523.489	1.791	10.7817	6.02	2728.529	0.5563	0.6717
5.472	5	41.48	-0.02	94.26	0.0062	4205	11	20.69	443.5		5.472	5	41.5	10.178	0.0062	1517.519	1.757	10.797	6.1452	2666.248	0.576	0.6804
5.482	5	42.48	0.03	94.44	0.0062	4280	11	20.69	442.5		5.482	5	42.5	10.183	0.0062	1514.201	1.733	10.7817	6.2212	2624.183	0.5899	0.6822
5.492	5	43.48	-0.01	94.69	0.0051	4294	11	20.69	443.2		5.492	5	43.5	10.179	0.0051	1508	1.7295	10.7939	6.2411	2608.059	0.5919	0.6811
5.502	5	44.48	0.04	94.76	0.0046	4355	11	20.69	443.3		5.502	5	44.5	10.184	0.0046	1507.178	1.7104	10.7786	6.302	2577.803	0.603	0.6809
5.512	5	45.48	0.03	94.58	0.004	4220	11	20.69	444.4		5.512	5	45.5	10.183	0.004	1511.055	1.7515	10.7817	6.1558	2646.55	0.5792	0.679
5.522	5	46.48	-0.01	94.56	0.004	4251	10	20.69	445.1		5.522	5	46.5	10.179	0.004	1510.91	1.7426	9.8127	5.6311	2632.892	0.5843	0.6779
5.532	5	47.48	0.1	94.81	0.0052	4342	11	20.7	442.9		5.532	5	47.5	10.19	0.0052	1506.951	1.7132	10.7603	6.2808	2581.721	0.6014	0.6816
5.542	5	48.48	0.1	94.8	0.0053	4375	10	20.69	441.4		5.542	5	48.5	10.19	0.0053	1507.173	1.7034	9.7821	5.7426	2567.361	0.6071	0.6841
5.552	5	49.48	0.15	94.61	0.0048	4242	11	20.69	440.6		5.552	5	49.5	10.195	0.0048	1512.162	1.7426	10.7451	6.1661	2635.115	0.5843	0.6855
5.562	5	50.48	0.15	94.6	0.0056	4347	10	20.69	440.5		5.562	5	50.5	10.195	0.0056	1512.387	1.7109	9.7683	5.7095	2587.514	0.6027	0.6857
5.572	5	51.48	0.16	94.87	0.0048	4300	11	20.69	441.4		5.572	5	51.5	10.196	0.0048	1506.501	1.7248	10.7421	6.228	2598.393	0.5947	0.6842
5.582	5	52.48	0.15	94.73	0.0049	4310	10	20.7	442.6		5.582	5	52.5	10.195	0.0049	1509.476	1.7219	9.7683	5.6728	2599.233	0.5963	0.6821
5.592	5	53.48	0.2	94.56	0.0043	4285	10	20.69	442.7		5.592	5	53.5	10.2	0.0043	1514.027	1.7286	9.7545	5.6428	2617.214	0.5924	0.6819
5.602	5	54.48	0.13	94.61	0.0049	4289	10	20.69	443.2		5.602	5	54.5	10.193	0.0049	1511.866	1.7286	9.7738	5.6541	2613.44	0.5924	0.6811
5.612	5	55.48	0.17	94.57	0.0044	4257	10	20.7	443.4		5.612	5	55.5	10.197	0.0044	1513.357	1.7377	9.7627	5.6183	2629.723	0.5872	0.6807
5.622	5	56.48	0.25	94.73	0.0042	4345	10	20.7	443.7		5.622	5	56.5	10.205	0.0042	1510.956	1.7098	9.7407	5.697	2583.431	0.6034	0.6801
5.632	5	57.48	0.26	94.86	0.0046	4363	10	20.69	444.2		5.632	5	57.5	10.206	0.0046	1508.201	1.7043	9.7379	5.7137	2570.423	0.6066	0.6794
5.642	5	58.48	0.31	94.72	0.0046	4250	11	20.69	445.1		5.642	5	58.5	10.211	0.0046	1512.069	1.7374	10.6966	6.1565	2627.116	0.5873	0.6778
5.652	5	59.48	0.58	94.65	0.0043	4279	10	20.71	444.4		5.652	5	59.5	10.238	0.0043	1517.64	1.724	9.6504	5.5975	2616.473	0.5951	0.679
5.662	5	60.48	0.58	94.75	0.0047	4241	10	20.71	443		5.662	5	60.5	10.238	0.0047	1515.394	1.7356	9.6504	5.5602	2630.118	0.5884	0.6814
5.672	5	61.48	0.58	94.83	0.0036	4270	10	20.7	441.5		5.672	5	61.5	10.238	0.0036	1513.601	1.7268	9.6504	5.5887	2613.635	0.5935	0.6839
5.682	5	62.48	0.51	94.64	0.0039	4182	10	20.71	438.3		5.682	5	62.5	10.231	0.0039	1516.827	1.755	9.6694	5.5096	2662.076	0.5771	0.6895
5.692	5	63.48	0.53	94.48	0.0031	4167	10	20.7	436		5.692	5	63.5	10.233	0.0031	1520.731	1.7594	9.664	5.4928	2675.541	0.5746	0.6935
5.702	5	64.48	0.47	94.34	0.0035	4134	11	20.7	434.2		5.702	5	64.5	10.227	0.0035	1523.008	1.7708	10.6484	6.0132	2696.973	0.568	0.6966
5.712	5	65.48	0.45	94.24	0.0039	4152	10	20.71	429.5		5.712	5	65.5	10.225	0.0039	1524.981	1.7655	9.6858	5.4862	2692.314	0.5711	0.7051
5.722	5	66.48	0.4	94.11	0.0037	4113	10	20.7	426.1		5.722	5	66.5	10.22	0.0037	1527.197	1.7787	9.6995	5.4531	2716.456	0.5634	0.7112
5.732	5	67.48	0.3	94.09	0.0035	4058	10	20.7	422.8		5.732	5	67.5	10.21	0.0035	1526.159	1.7982	9.7269	5.4092	2744.365	0.5521	0.7174
5.742	5	68.48	0.25	94.16	0.0041	4131	10	20.71	420		5.742	5	68.5	10.205	0.0041	1523.817	1.7756	9.7407	5.4859	2705.676	0.5652	0.7226
5.752	5	69.48	0.17	94.22	0.0041	4134	10	20.7	420.2		5.752	5	69.5	10.197	0.0041	1521.259	1.776	9.7627	5.4969	2701.801	0.5649	0.7223
5.762	5	70.48	0.1	94.15	0.0039	4046	10	20.7	421.2		5.762	5	70.5	10.19	0.0039	1521.804	1.8057	9.7821	5.4174	2747.879	0.5478	0.7205
5.772	5	71.48	0.1	93.84	0.0033	4107	10	20.7	422.9		5.772	5	71.5	10.19	0.0033	1528.882	1.7859	9.7821	5.4775	2730.404	0.5592	0.7172
5.782	5	72.48	0.03	93.74	0.0034	4051	10	20.71	426.8		5.782	5	72.5	10.183	0.0034	1530.128	1.8053	9.8015	5.4294	2762.301	0.548	0.71
5.792	5	73.48	0	93.72	0.0033	4116	9	20.71	430.3		5.792	5	73.5	10.18	0.0033	1530.137	1.7847	8.8289	4.9469	2730.908	0.5599	0.7037
5.802	5	74.48	-0.11	94	0.0041	4151	9	20.71	432.3		5.802	5	74.5	10.169	0.0041	1522.078	1.7755	8.8565	4.9881	2702.468	0.5652	0.7
5.812	5	75.48	-0.13	94.05	0.0038	4180	10	20.71	435.1		5.812	5	75.5	10.167	0.0038	1520.64	1.7667	9.8461	5.5732	2686.522	0.5704	0.6951
5.822	5	76.48	-0.2	94.08	0.0034	4207	9	20.7	438.1		5.822	5	76.5	10.16	0.0034	1518.912	1.7595	8.8791	5.0465	2672.476	0.5746	0.6898
5.832	5	77.48	-0.26	94.15	0.0044	4298	9	20.7	441.5		5.832	5	77.5	10.154	0.0044	1516.428	1.7325	8.8943	5.1337	2627.252	0.5902	0.6839
5.842	5	78.48	-0.34	94.04	0.0037	4189	9	20.71	445.5		5.842	5	78.5	10.146	0.0037	1517.726	1.7675	8.9146	5.0435	2682.628	0.5699	0.6771
5.852	5	79.48	-0.35	93.76	0.0033	4202	9	20.7	447.4		5.852	5	79.5	10.145	0.0033	1523.96	1.7636	8.9171	5.0561	2687.703	0.5721	0.674
5.862	5	80.48	-0.37	94	0.0045	4369	9	20.71	448.4		5.862	5	80.5	10.143	0.0045	1518.186	1.7131	8.9222	5.2082	2600.805	0.6014	0.6724
5.872	5	81.48	-0.42	94.23	0.0054	4303	9	20.71	450.7		5.872	5	81.5	10.138	0.0054	1512.231	1.7337	8.9349	5.1535	2621.823	0.5895	0.6685
5.882	5	82.48	-0.5	94.15	0.0044	4313	10	20.71	451.3		5.882	5	82.5	10.13	0.0044	1512.844	1.7321	9.9503	5.7447	2620.374	0.5904	0.6675
5.892	5	83.48	-0.44	94.08	0.0047	4274	9	20.71	451.4		5.892	5	83.5	10.136	0.0047	1515.324	1.7429	8.94	5.1293	2641.085	0.5842	0.6674
5.902	5	84.48	-0.49	94.12	0.0044	4309	9	20.72	453.4		5.902	5	84.5	10.131	0.0044	1513.671	1.7331	8.9527	5.1657	2623.38	0.5898	0.6642
5.912	5	85.48	-0.44	94.15	0.0044	4341	9	20.71	453.7		5.912	5	85.5	10.136	0.0044	1513.74	1.7226	8.94	5.1897	2607.621	0.5959	0.6637
5.922	5	86.48	-0.38	94.26	0.0045	4238	9	20.71	452.3		5.922	5	86.5	10.142	0.0045	1512.151	1.753	8.9247	5.0912	2650.735	0.5783	0.6659
5.932	5	87.48	-0.38	94.27	0.0039	4345	9	20.71	450.9		5.932	5	87.5	10.142	0.0039	1511.926	1.7204	8.9247	5.1875	2601.147	0.5972	0.6682
5.942	5	88.48	-0.32	94.41	0.0036	4292	9	20.71	448.1		5.942	5	88.5	10.148	0.0036	1509.67	1.7354	8.9095	5.1341	2619.84	0.5885	0.6728
5.952	5	89.48	-0.33	94.27	0.0043	4307	8	20.72	446.6		5.952	5	89.5	10.147	0.0043	1512.671	1.731	7.9218	4.5764	2618.429	0.5911	0.6754
5.962	5	90.48	-0.33	94.1	0.0037	4137	9	20.71	447		5.962	5	90.5	10.147	0.0037	1516.515	1.7838	8.912	4.996	2705.193	0.5604	0.6746
5.972	5	91.48	-0.17	93.75	0.0027	4241	8	20.71	447.6		5.972	5	91.5	10.163	0.0027	1526.893	1.7484	7.8858	4.5103	2669.633	0.581	0.6736
5.982	5	92.48	-0.18	94.03	0.0038	4233	10	20.71	447.3		5.982	5	92.5	10.162	0.0038	1520.347	1.7511	9.8601	5.631	2662.205	0.5794	0.6742
5.992	5	93.48	-0.21	94.12	0.0035	4248	9	20.72	449.8		5.992	5	93.5	10.159	0.0035	1517.854	1.7469	8.8817	5.0841	2651.602	0.5818	0.67
6.002	5	94.48	0.06	94.5	0.0026	4249	9	20.71	448.8		6.002	5	94.5	10.186	0.0026	1513.297	1.742	8.8139	5.0596	2636.167	0.5847	0.6717
6.012	5	95.48	0.01	94.44	0.0027	4310	9	20.72	448.3		6.012	5	95.5	10.181	0.0027	1513.903	1.7243	8.8264	5.1188	2610.442	0.5949	0.6724
6.022	5	96.48	-0.1	94.26	0.0028	4281	9	20.72	448.3		6.022	5	96.5	10.17	0.0028	1516.326	1.735	8.854	5.1033	2630.764	0.5888	0.6725
6.032	5	97.48	-0.1	94.32	0.0027	4229	9	20.72	448.3		6.032	5	97.5	10.17	0.0027	1514.971	1.7509	8.854	5.0568	2652.577	0.5795	0.6724
6.042	5	98.48	-0.09	94.06	0.0026	4132	9	20.72	448.2		6.042	5	98.5	10.171	0.0026	1521.011	1.7812	8.8515	4.9694	2709.236	0.5619	0.6726
6.052	5	99.48	-0.08	93.81	0.0022	4143	9	20.72	446.2		6.052	5	99.5	10.172	0.0022	1526.869	1.7775	8.8489	4.9782	2714.054	0.5641	0.676
6.062	5	100.48	-0.11	94.04	0.0024	4180	9	20.71	443.1		6.062	5	100.5	10.169	0.0024	1521.167	1.7664	8.8565	5.014	2686.924	0.5706	0.6812
6.072	5	101.48	-0.12	94.16	0.0024	4241	9	20.72	440		6.072	5	101.5	10.168	0.0024	1518.292	1.7475	8.859	5.0694	2653.289	0.5815	0.6865
6.082	5	102.48	-0.08	94.19	0.0021	4228	9	20.73	437.1		6.082	5	102.5	10.172	0.0021	1518.209	1.7509	8.8489	5.054	2658.193	0.5795	0.6915
6.092	5	103.48	-0.08	94.24	0.0025	4244	9	20.72	433.9		6.092	5	103.5	10.172	0.0025	1517.077	1.7459	8.8489	5.0683	2648.722	0.5824	0.6972
6.102	5	104.48	-0.13	94.12	0.0025	4221	9	20.73	431.4		6.102	5	104.5	10.167	0.0025	1519.05	1.7539	8.8615	5.0524	2664.268	0.5778	0.7016
6.112	5	105.48	-0.14	94.07	0.0025	4312	9	20.71	429.8		6.112	5	105.5	10.166	0.0025	1520.036	1.7263	8.864	5.1348	2623.967	0.5938	0.7044
6.122	5	106.48	-0.18	94.16	0.003	4225	9	20.72	429.1		6.122	5	106.5	10.162	0.003	1517.396	1.7535	8.8741	5.0607	2660.794	0.578	0.7057
6.132	5	107.48	-0.18	94.01	0.0025	4125	9	20.72	430.5		6.132	5	107.5	10.162	0.0025	1520.802	1.785	8.8741	4.9714	2714.668	0.5597	0.7032
6.142	5	108.48	-0.21	93.75	0.0023	4156	10	20.72	430.8		6.142	5	108.5	10.159	0.0023	1526.292	1.7757	9.8685	5.5576	2710.197	0.5652	0.7028
6.152	5	109.48	-0.22	93.75	0.0024	4119	9	20.72	429.8		6.152	5	109.5	10.158	0.0024	1526.142	1.7877	8.8842	4.9698	2728.207	0.5582	0.7045
6.162	5	110.48	-0.21	93.55	0.0026	4044	10	20.72	429.2		6.162	5	110.5	10.159	0.0026	1530.892	1.8118	9.8685	5.4467	2773.731	0.5442	0.7055
6.172	5	111.48	-0.27	93.23	0.0019	4102	10	20.79	429.5		6.172	5	111.5	10.153	0.0019	1537.401	1.794	9.8854	5.5102	2758.103	0.5545	0.705
6.182	5	112.48	-0.22	93.07	0.0021	3999	10	20.78	428.6		6.182	5	112.5	10.158	0.0021	1541.894	1.8269	9.8713	5.4032	2816.942	0.5354	0.7066
6.192	5	113.48	-0.22	93.21	0.0019	4033	10	20.79	428.3		6.192	5	113.5	10.158	0.0019	1538.625	1.8156	9.8713	5.4368	2793.594	0.542	0.7073
6.202	5	114.48	-0.22	93.31	0.0019	4096	10	20.78	426.2		6.202	5	114.5	10.158	0.0019	1536.298	1.7951	9.8713	5.4992	2757.744	0.5539	0.711
6.212	5	115.48	-0.17	93.58	0.002	4131	10	20.78	425.9		6.212	5	115.5	10.163	0.002	1530.803	1.7829	9.8573	5.5287	2729.313	0.5609	0.7116
6.222	5	116.48	-0.17	93.7	0.0018	4145	10	20.79	423.8		6.222	5	116.5	10.163	0.0018	1528.041	1.7785	9.8573	5.5426	2717.57	0.5635	0.7155
6.232	5	117.48	-0.22	93.67	0.0018	4124	9	20.79	422.7		6.232	5	117.5	10.158	0.0018	1527.978	1.786	8.8842	4.9742	2729.041	0.5591	0.7176
6.242	5	118.48	-0.22	93.29	0.0016	4098	10	20.79	421.2		6.242	5	118.5	10.158	0.0016	1536.762	1.7944	9.8713	5.5012	2757.585	0.5543	0.7204
6.252	5	119.48	-0.23	93.1	0.0018	4072	9	20.79	418.9		6.252	5	119.5	10.157	0.0018	1541.041	1.803	8.8867	4.9288	2778.538	0.5493	0.7248
6.262	5	120.48	-0.23	93.25	0.0022	3994	9	20.79	418.1		6.262	5	120.5	10.157	0.0022	1537.542	1.8288	8.8867	4.8594	2811.837	0.5343	0.7263
6.272	5	121.48	-0.22	93.31	0.0016	3993	10	20.79	416.4		6.272	5	121.5	10.158	0.0016	1536.298	1.8289	9.8713	5.3973	2809.8	0.5343	0.7296
6.282	5	122.48	-0.14	93.2	0.0016	4056	10	20.79	417.4		6.282	5	122.5	10.166	0.0016	1540.07	1.8067	9.8489	5.4515	2782.375	0.5472	0.7276
6.292	5	123.48	-0.13	93.34	0.0018	4048	10	20.79	418.8		6.292	5	123.5	10.167	0.0018	1536.962	1.8091	9.8461	5.4426	2780.517	0.5458	0.725
6.302	5	124.48	-0.07	93.4	0.0017	4035	10	20.79	422.2		6.302	5	124.5	10.173	0.0017	1536.475	1.8123	9.8294	5.4237	2784.564	0.5439	0.7184
6.312	5	125.48	0.03	93.36	0.0015	3972	10	20.79	425.5		6.312	5	125.5	10.183	0.0015	1538.915	1.8315	9.8015	5.3517	2818.507	0.5328	0.7123
6.322	5	126.48	0.07	93.28	0.0015	4011	10	20.79	428.3		6.322	5	126.5	10.187	0.0015	1541.383	1.8177	9.7904	5.386	2801.843	0.5408	0.7072
6.332	5	127.48	0.13	93.39	0.0015	3911	10	20.8	428.3		6.332	5	127.5	10.193	0.0015	1539.728	1.8504	9.7738	5.282	2849.123	0.5218	0.7071
6.342	5	128.48	0.18	93.43	0.0015	3977	10	20.79	425		6.342	5	128.5	10.198	0.0015	1539.553	1.8271	9.76	5.3417	2812.945	0.5353	0.7133
6.352	5	129.48	0.22	93.57	0.0013	4021	10	20.79	422.8		6.352	5	129.5	10.202	0.0013	1536.909	1.8118	9.7489	5.3809	2784.52	0.5442	0.7173
6.362	5	130.48	0.27	93.89	0.0011	4097	10	20.8	419.7		6.362	5	130.5	10.207	0.0011	1530.285	1.7861	9.7352	5.4505	2733.271	0.5591	0.7233
6.372	5	131.48	0.29	93.9	0.0013	4001	10	20.79	398.5		6.372	5	131.5	10.209	0.0013	1530.355	1.8171	9.7297	5.3544	2780.877	0.5411	0.7658
6.382	5	132.48	0.41	93.55	0.0009	4007	10	20.79	395.9		6.382	5	132.5	10.221	0.0009	1540.235	1.813	9.6967	5.3484	2792.481	0.5435	0.7713
6.392	5	133.48	0.5	93.59	0.001	3964	9	20.8	393.9		6.392	5	133.5	10.23	0.001	1540.663	1.8258	8.7049	4.7679	2812.876	0.5361	0.7757
6.402	5	134.48	0.56	93.47	0.0008	3965	9	20.8	393.3		6.402	5	134.5	10.236	0.0008	1544.357	1.8244	8.6902	4.7635	2817.451	0.5369	0.7771
6.412	5	135.48	0.63	93.67	0.0009	4007	10	20.8	395.1		6.412	5	135.5	10.243	0.0009	1540.764	1.8091	9.6368	5.3268	2787.441	0.5457	0.7732
6.422	5	136.48	0.73	93.78	0.0009	4092	9	20.8	395.4		6.422	5	136.5	10.253	0.0009	1539.721	1.7797	8.6487	4.8596	2740.253	0.5628	0.7725
6.432	5	137.48	0.77	93.85	0.001	4002	9	20.8	395.6		6.432	5	137.5	10.257	0.001	1538.704	1.8083	8.639	4.7774	2782.454	0.5462	0.772
6.442	5	138.48	0.88	93.86	0.0012	4030	10	20.8	394.8		6.442	5	138.5	10.268	0.0012	1540.123	1.7972	9.5693	5.3246	2767.868	0.5527	0.7738
6.452	5	139.48	1.09	93.83	0.0007	3847	10	20.8	394.7		6.452	5	139.5	10.289	0.0007	1543.968	1.8551	9.5131	5.1279	2864.289	0.5191	0.7739
6.462	5	140.48	1.13	92.33	0.0003	3822	9	20.8	395.9		6.462	5	140.5	10.293	0.0003	1580.135	1.8632	8.5522	4.5902	2944.04	0.5144	0.7714
6.472	5	141.48	2.05	92.56	0.0004	3841	9	20.8	396.6		6.472	5	141.5	10.385	0.0004	1588.649	1.8401	8.3358	4.5302	2923.224	0.5278	0.7699
6.482	5	142.48	4.15	94	0.0004	3920	9	20.8	394.2		6.482	5	142.5	10.595	0.0004	1585.84	1.7772	7.8699	4.4282	2818.405	0.5643	0.775
6.492	5	143.48	4.08	94.87	0.0002	3988	9	20.8	387.7		6.492	5	143.5	10.588	0.0002	1564.421	1.7563	7.8848	4.4895	2747.549	0.5764	0.7894
6.502	5	144.48	5.04	999	0	3931	9	20.8	372.5		6.502	5	144.5	10.684	0	109.9392	1.7588	7.6834	4.3685	193.3658	0.5749	0.8249
6.512	5	145.48	4.03	999	0	3893	9	20.79	349.8		6.512	5	145.5	10.583	0	108.8999	1.7882	7.8955	4.4154	194.7331	0.5579	0.8842
6.522	5	146.48	3.32	999	0	3948	8	20.8	315.4		6.522	5	146.5	10.512	0	108.1693	1.782	7.1552	4.0152	192.7599	0.5615	0.9913
6.532	5	147.48	2.95	999	0	3989	9	20.8	269.6		6.532	5	147.5	10.475	0	107.7886	1.7749	8.1315	4.5814	191.3132	0.5656	1.1786
6.542	5	148.48	3.32	999	0	3942	8	20.79	221.2		6.542	5	148.5	10.512	0	108.1693	1.784	7.1552	4.0108	192.9733	0.5603	1.4662
6.552	5	149.48	4.75	999	0	4118	8	20.8	183.7		6.552	5	149.5	10.655	0	109.6408	1.7046	6.8831	4.038	186.8905	0.6064	1.7997
6.562	5	150.48	6.16	999	0	7733	7	20.8	165.3		6.562	5	150.5	10.796	0	111.0917	0.9711	5.8003	5.9728	107.8831	1.0318	2.0221
6.572	6	0.51	5.9	999	0	8130	7	20.79	166.3		6.572	6	0.5	10.77	0	110.8241	0.9219	5.8404	6.335	102.1725	1.0604	2.009
6.582	6	1.51	5.91	999	0	4120	7	20.8	188.7		6.582	6	1.5	10.771	0	110.8344	1.6856	5.8389	3.464	186.8234	0.6174	1.7471
6.592	6	2.51	5.76	999	0	4023	8	20.81	228.3		6.592	6	2.5	10.756	0	110.6801	1.7178	6.6997	3.9001	190.1288	0.5987	1.4159
6.602	6	3.51	5.2	999	0	3972	8	20.8	276.4		6.602	6	3.5	10.7	0	110.1038	1.743	6.8005	3.9016	191.9106	0.5841	1.1466
6.612	6	4.51	4.58	999	0	3988	9	20.8	320.9		6.612	6	4.5	10.638	0	109.4658	1.748	7.779	4.4502	191.3482	0.5812	0.9727
6.622	6	5.51	0.58	92.98	0.002	3983	9	20.79	354.8		6.622	6	5.5	10.238	0.002	1556.163	1.818	8.6853	4.7775	2829.071	0.5406	0.8705
6.632	6	6.51	-0.09	92.87	0.006	4085	9	20.79	379.7		6.632	6	6.5	10.171	0.006	1548.569	1.7963	8.8515	4.9275	2781.729	0.5532	0.8077
6.642	6	7.51	-0.28	93.23	0.0054	4083	9	20.8	398.7		6.642	6	7.5	10.152	0.0054	1537.25	1.8003	8.8994	4.9432	2767.563	0.5509	0.7653
6.652	6	8.51	-0.33	92.86	0.0123	4043	9	20.79	412.5		6.652	6	8.5	10.147	0.0123	1545.15	1.8143	8.912	4.9121	2803.384	0.5427	0.7371
6.662	6	9.51	-0.39	93	0.014	3977	9	20.79	422.1		6.662	6	9.5	10.141	0.014	1540.951	1.8374	8.9273	4.8587	2831.325	0.5294	0.7186
6.672	6	10.51	-0.39	92.88	0.0092	4002	8	20.79	429.2		6.672	6	10.5	10.141	0.0092	1543.766	1.829	7.9354	4.3386	2823.541	0.5342	0.7056
6.682	6	11.51	-0.43	92.97	0.0122	4024	9	20.79	432.4		6.682	6	11.5	10.137	0.0122	1541.046	1.8224	8.9374	4.9043	2808.383	0.5381	0.6998
6.692	6	12.51	-0.41	93.09	0.0143	4061	9	20.79	436.6		6.692	6	12.5	10.139	0.0143	1538.543	1.8098	8.9324	4.9355	2784.496	0.5453	0.6924
6.702	6	13.51	-0.33	93.25	0.0153	4107	9	20.79	439.9		6.702	6	13.5	10.147	0.0153	1536.028	1.7935	8.912	4.9692	2754.789	0.5548	0.6867
6.712	6	14.51	-0.32	93.26	0.0139	4068	9	20.79	441.8		6.712	6	14.5	10.148	0.0139	1535.947	1.8059	8.9095	4.9335	2773.815	0.5476	0.6834
6.722	6	15.51	-0.28	93.24	0.0165	4128	9	20.79	444.7		6.722	6	15.5	10.152	0.0165	1537.017	1.7858	8.8994	4.9833	2744.838	0.5593	0.6785
6.732	6	16.51	-0.19	93.37	0.0214	4152	8	20.79	447.2		6.732	6	16.5	10.161	0.0214	1535.358	1.7766	7.8903	4.4413	2727.707	0.5646	0.6743
6.742	6	17.51	-0.1	93.42	0.0185	4098	9	20.8	449.4		6.742	6	17.5	10.17	0.0185	1535.558	1.7923	8.854	4.94	2752.172	0.5555	0.6707
6.752	6	18.51	-0.08	93.49	0.0182	4141	9	20.8	451.9		6.752	6	18.5	10.172	0.0182	1534.238	1.7782	8.8489	4.9764	2728.129	0.5637	0.6665
6.762	6	19.51	0.01	93.67	0.0181	4133	9	20.79	453		6.762	6	19.5	10.181	0.0181	1531.438	1.7791	8.8264	4.961	2724.642	0.5631	0.6647
6.772	6	20.51	0.05	93.68	0.0175	4197	9	20.8	453.1		6.772	6	20.5	10.185	0.0175	1531.809	1.7583	8.8164	5.0143	2693.325	0.5753	0.6646
6.782	6	21.51	0.11	93.57	0.0155	4126	9	20.8	454.3		6.782	6	21.5	10.191	0.0155	1535.252	1.7796	8.8014	4.9457	2732.172	0.5629	0.6628
6.792	6	22.51	0.1	93.63	0.0143	4147	9	20.79	455.8		6.792	6	22.5	10.19	0.0143	1533.715	1.7731	8.8039	4.9652	2719.461	0.5666	0.6603
6.802	6	23.51	0.11	93.64	0.0126	4120	9	20.79	458.3		6.802	6	23.5	10.191	0.0126	1533.634	1.7815	8.8014	4.9403	2732.233	0.5618	0.6563
6.812	6	24.51	0.12	93.9	0.0132	4088	9	20.8	459.3		6.812	6	24.5	10.192	0.0132	1527.807	1.7917	8.7989	4.9111	2737.297	0.5559	0.6547
6.822	6	25.51	0.16	93.94	0.0114	4053	8	20.8	458.7		6.822	6	25.5	10.196	0.0114	1527.491	1.8023	7.8124	4.3346	2753.026	0.5497	0.6557
6.832	6	26.51	0.16	93.85	0.011	4091	8	20.79	457.2		6.832	6	26.5	10.196	0.011	1529.553	1.79	7.8124	4.3645	2737.869	0.5569	0.658
6.842	6	27.51	0.16	93.73	0.01	4111	9	20.79	454.1		6.842	6	27.5	10.196	0.01	1532.311	1.7835	8.789	4.9278	2732.951	0.5606	0.6631
6.852	6	28.51	0.21	93.85	0.0123	4062	8	20.79	450.8		6.852	6	28.5	10.201	0.0123	1530.303	1.7985	7.8014	4.3377	2752.251	0.5519	0.6684
6.862	6	29.51	0.16	93.89	0.0112	4042	9	20.79	447.5		6.862	6	29.5	10.196	0.0112	1528.636	1.8059	8.789	4.8667	2760.594	0.5476	0.6737
6.872	6	30.51	0.16	93.72	0.0089	4025	9	20.79	445.1		6.872	6	30.5	10.196	0.0089	1532.542	1.8115	8.789	4.8517	2776.218	0.5444	0.6779
6.882	6	31.51	0.16	93.56	0.0102	4020	9	20.8	441.2		6.882	6	31.5	10.196	0.0102	1536.236	1.8132	8.789	4.8473	2785.447	0.5434	0.6844
6.892	6	32.51	0.11	93.51	0.0103	3998	8	20.79	441.1		6.892	6	32.5	10.191	0.0103	1536.641	1.8214	7.8235	4.2954	2798.765	0.5387	0.6846
6.902	6	33.51	0.11	93.61	0.0111	4075	9	20.79	439.5		6.902	6	33.5	10.191	0.0111	1534.327	1.796	8.8014	4.9005	2755.708	0.5533	0.6874
6.912	6	34.51	0.09	93.6	0.011	4036	9	20.8	436.3		6.912	6	34.5	10.189	0.011	1534.257	1.8091	8.8064	4.8677	2775.674	0.5457	0.6929
6.922	6	35.51	0.08	93.33	0.0091	4018	8	20.79	432.8		6.922	6	35.5	10.188	0.0091	1540.369	1.8152	7.8301	4.3135	2796.152	0.5422	0.6992
6.932	6	36.51	0.11	93.37	0.0104	4020	8	20.79	425.1		6.932	6	36.5	10.191	0.0104	1539.891	1.8141	7.8235	4.3127	2793.444	0.5429	0.7132
6.942	6	37.51	0.11	93.52	0.0107	4058	8	20.8	415.7		6.942	6	37.5	10.191	0.0107	1536.409	1.8016	7.8235	4.3426	2767.948	0.5501	0.731
6.952	6	38.51	0.07	93.46	0.0101	4048	9	20.79	409.2		6.952	6	38.5	10.187	0.0101	1537.196	1.8055	8.8114	4.8802	2775.482	0.5478	0.7438
6.962	6	39.51	0.07	93.34	0.0092	4050	9	20.79	404.4		6.962	6	39.5	10.187	0.0092	1539.985	1.8049	8.8114	4.8819	2779.508	0.5482	0.7536
6.972	6	40.51	0.02	93.29	0.01	4032	9	20.8	401.8		6.972	6	40.5	10.182	0.01	1540.393	1.8117	8.8239	4.8705	2790.72	0.5443	0.7589
6.982	6	41.51	0.07	93.37	0.011	4008	9	20.8	397		6.982	6	41.5	10.187	0.011	1539.287	1.8187	8.8114	4.8448	2799.565	0.5402	0.769
6.992	6	42.51	0.03	93.34	0.0098	4031	8	20.79	394.6		6.992	6	42.5	10.183	0.0098	1539.38	1.8118	7.8412	4.3278	2789.119	0.5442	0.7742
7.002	6	43.51	0.03	93.24	0.0096	4049	8	20.79	393.3		7.002	6	43.5	10.183	0.0096	1541.711	1.8059	7.8412	4.3419	2784.221	0.5476	0.777
7.012	6	44.51	-0.03	93.18	0.0117	4026	9	20.79	389.5		7.012	6	44.5	10.177	0.0117	1542.203	1.8146	8.8364	4.8697	2798.427	0.5426	0.7853
7.022	6	45.51	-0.02	93.14	0.01	4038	8	20.79	386.2		7.022	6	45.5	10.178	0.01	1543.29	1.8104	7.8523	4.3373	2794.018	0.545	0.7928
7.032	6	46.51	0.03	93.14	0.0111	3969	8	20.79	385		7.032	6	46.5	10.183	0.0111	1544.048	1.8325	7.8412	4.279	2829.468	0.5322	0.7955
7.042	6	47.51	-0.02	93.17	0.0108	3981	8	20.79	385.2		7.042	6	47.5	10.178	0.0108	1542.589	1.8294	7.8523	4.2924	2821.959	0.534	0.7951
7.052	6	48.51	-0.01	93.05	0.011	3956	9	20.8	385.7		7.052	6	48.5	10.179	0.011	1545.551	1.8376	8.8314	4.8059	2840.116	0.5292	0.7939
7.062	6	49.51	0.03	92.91	0.0101	3964	8	20.79	386.3		7.062	6	49.5	10.183	0.0101	1549.452	1.8342	7.8412	4.275	2841.98	0.5312	0.7926
7.072	6	50.51	0.08	92.62	0.0094	3903	8	20.79	386.9		7.072	6	50.5	10.188	0.0094	1557.084	1.8541	7.8301	4.2232	2886.936	0.5197	0.7912
7.082	6	51.51	0.08	92.46	0.0106	3865	9	20.79	387.4		7.082	6	51.5	10.188	0.0106	1560.901	1.8672	8.8089	4.7176	2914.573	0.512	0.7901
7.092	6	52.51	0.11	92.43	0.0093	3919	9	20.79	387.1		7.092	6	52.5	10.191	0.0093	1562.078	1.848	8.8014	4.7626	2886.764	0.5232	0.7907
7.102	6	53.51	0.07	92.49	0.0109	3899	9	20.79	386.3		7.102	6	53.5	10.187	0.0109	1560.031	1.8556	8.8114	4.7485	2894.833	0.5188	0.7925
7.112	6	54.51	0.11	92.74	0.0134	3927	9	20.79	384.9		7.112	6	54.5	10.191	0.0134	1554.691	1.8453	8.8014	4.7697	2868.861	0.5248	0.7958
7.122	6	55.51	0.26	92.8	0.0157	3853	9	20.8	384.2		7.122	6	55.5	10.206	0.0157	1555.555	1.8681	8.7641	4.6914	2905.986	0.5115	0.7974
7.132	6	56.51	0.35	92.85	0.0134	3951	9	20.79	383.9		7.132	6	56.5	10.215	0.0134	1555.742	1.8328	8.7419	4.7696	2851.392	0.532	0.7981
7.142	6	57.51	0.35	92.77	0.0132	3925	9	20.79	385		7.142	6	57.5	10.215	0.0132	1557.64	1.8416	8.7419	4.7468	2868.61	0.5269	0.7955
7.152	6	58.51	0.34	92.74	0.0125	3926	9	20.79	385		7.152	6	58.5	10.214	0.0125	1558.2	1.8415	8.7443	4.7485	2869.391	0.527	0.7954
7.162	6	59.51	0.45	92.74	0.0113	3928	9	20.8	385.5		7.162	6	59.5	10.225	0.0113	1559.878	1.8388	8.7172	4.7407	2868.33	0.5285	0.7943
7.172	6	60.51	0.4	92.77	0.0115	3884	10	20.79	385.6		7.172	6	60.5	10.22	0.0115	1558.402	1.8548	9.6995	5.2294	2890.53	0.5193	0.7942
7.182	6	61.51	0.34	92.58	0.011	3902	9	20.8	386.1		7.182	6	61.5	10.214	0.011	1562.012	1.8497	8.7443	4.7275	2889.238	0.5222	0.7929
7.192	6	62.51	0.3	92.58	0.0124	3877	10	20.79	384.6		7.192	6	62.5	10.21	0.0124	1561.401	1.859	9.7269	5.2322	2902.713	0.5168	0.7963
7.202	6	63.51	0.23	92.54	0.0126	3857	9	20.79	384.5		7.202	6	63.5	10.203	0.0126	1561.285	1.8673	8.7716	4.6975	2915.364	0.512	0.7966
7.212	6	64.51	0.2	92.44	0.012	3832	10	20.79	383.1		7.212	6	64.5	10.2	0.012	1563.218	1.8766	9.7545	5.1979	2933.553	0.5066	0.7999
7.222	6	65.51	0.14	92.46	0.0121	3868	9	20.79	382.3		7.222	6	65.5	10.194	0.0121	1561.82	1.8651	8.7939	4.715	2912.94	0.5133	0.8017
7.232	6	66.51	0.14	92.5	0.0106	3826	10	20.78	382.3		7.232	6	66.5	10.194	0.0106	1560.864	1.8798	9.771	5.1978	2934.167	0.5047	0.8017
7.242	6	67.51	0.04	92.62	0.0107	3907	9	20.79	383.1		7.242	6	67.5	10.184	0.0107	1556.473	1.8534	8.8189	4.7582	2884.792	0.5201	0.7998
7.252	6	68.51	0.04	92.89	0.0124	3910	9	20.79	383.6		7.252	6	68.5	10.184	0.0124	1550.076	1.8524	8.8189	4.7608	2871.338	0.5207	0.7987
7.262	6	69.51	0.01	92.99	0.0123	3963	9	20.79	383.4		7.262	6	69.5	10.181	0.0123	1547.264	1.8349	8.8264	4.8103	2839.047	0.5308	0.7991
7.272	6	70.51	-0.02	92.91	0.012	3952	9	20.79	383.9		7.272	6	70.5	10.178	0.012	1548.691	1.8391	8.8339	4.8033	2848.264	0.5283	0.798
7.282	6	71.51	-0.05	93.22	0.0132	4046	9	20.78	385.7		7.282	6	71.5	10.175	0.0132	1540.966	1.8083	8.8414	4.8893	2786.581	0.5462	0.794
7.292	6	72.51	-0.08	93.5	0.014	4116	9	20.78	387.8		7.292	6	72.5	10.172	0.014	1534.007	1.7862	8.8489	4.9542	2739.969	0.5591	0.7893
7.302	6	73.51	-0.09	93.37	0.0115	4074	9	20.78	389.1		7.302	6	73.5	10.171	0.0115	1536.869	1.7999	8.8515	4.9178	2766.202	0.5511	0.7862
7.312	6	74.51	-0.15	93.28	0.0102	4059	9	20.79	391.8		7.312	6	74.5	10.165	0.0102	1538.054	1.8059	8.8665	4.9099	2777.497	0.5477	0.7802
7.322	6	75.51	-0.14	93.25	0.0109	4090	10	20.79	393.4		7.322	6	75.5	10.166	0.0109	1538.904	1.7956	9.8489	5.4851	2763.235	0.5536	0.7767
7.332	6	76.51	-0.2	93.33	0.0117	4021	9	20.78	396.5		7.332	6	76.5	10.16	0.0117	1536.135	1.8193	8.8791	4.8806	2794.624	0.5399	0.7701
7.342	6	77.51	-0.19	93.43	0.0116	4074	9	20.79	400.7		7.342	6	77.5	10.161	0.0116	1533.967	1.8017	8.8766	4.9269	2763.696	0.5501	0.7613
7.352	6	78.51	-0.25	93.46	0.012	4162	9	20.78	404.1		7.352	6	78.5	10.155	0.012	1532.368	1.7745	8.8918	5.0109	2719.145	0.5659	0.754
7.362	6	79.51	-0.29	93.38	0.012	4084	9	20.78	402.7		7.362	6	79.5	10.151	0.012	1533.615	1.8002	8.9019	4.945	2760.794	0.5509	0.7569
7.372	6	80.51	-0.28	93	0.0097	4012	10	20.79	404.9		7.372	6	80.5	10.152	0.0097	1542.623	1.8237	9.8882	5.4221	2813.25	0.5373	0.7525
7.382	6	81.51	-0.28	92.94	0.0126	3992	9	20.79	405.3		7.382	6	81.5	10.152	0.0126	1544.03	1.8304	8.8994	4.8621	2826.129	0.5334	0.7516
7.392	6	82.51	-0.33	93.09	0.0105	4099	9	20.79	407.2		7.392	6	82.5	10.147	0.0105	1539.757	1.796	8.912	4.9621	2765.456	0.5533	0.7477
7.402	6	83.51	-0.34	93.23	0.0143	4034	9	20.78	411.4		7.402	6	83.5	10.146	0.0143	1536.342	1.8175	8.9146	4.905	2792.24	0.5409	0.7393
7.412	6	84.51	-0.38	93.24	0.0121	4101	9	20.76	415.7		7.412	6	84.5	10.142	0.0121	1535.504	1.7963	8.9247	4.9685	2758.182	0.5532	0.7309
7.422	6	85.51	-0.38	93.1	0.0118	3991	10	20.75	417.3		7.422	6	85.5	10.142	0.0118	1538.765	1.8325	9.9164	5.4114	2819.784	0.5322	0.7277
7.432	6	86.51	-0.33	93.18	0.0094	4010	9	20.76	423.5		7.432	6	86.5	10.147	0.0094	1537.657	1.8252	8.912	4.8827	2806.601	0.5364	0.716
7.442	6	87.51	-0.32	93.28	0.0148	4101	9	20.76	426.8		7.442	6	87.5	10.148	0.0148	1535.482	1.7952	8.9095	4.9629	2756.513	0.5538	0.71
7.452	6	88.51	-0.33	93.43	0.0133	4121	9	20.76	431.4		7.452	6	88.5	10.147	0.0133	1531.854	1.7889	8.912	4.9817	2740.403	0.5575	0.7016
7.462	6	89.51	-0.28	93.34	0.0122	4124	9	20.76	436.2		7.462	6	89.5	10.152	0.0122	1534.694	1.7871	8.8994	4.9798	2742.655	0.5585	0.6931
7.472	6	90.51	-0.27	93.3	0.0085	4142	9	20.76	440.9		7.472	6	90.5	10.153	0.0085	1535.774	1.7812	8.8968	4.9949	2735.48	0.562	0.6849
7.482	6	91.51	-0.27	93.24	0.0071	4093	9	20.76	443.6		7.482	6	91.5	10.153	0.0071	1537.169	1.7969	8.8968	4.9512	2762.159	0.5528	0.6803
7.492	6	92.51	-0.27	93.34	0.0096	4090	9	20.76	446.6		7.492	6	92.5	10.153	0.0096	1534.845	1.7979	8.8968	4.9485	2759.475	0.5523	0.6753
7.502	6	93.51	-0.27	93.67	0.0084	4053	9	20.75	449.6		7.502	6	93.5	10.153	0.0084	1527.226	1.81	8.8968	4.9155	2764.207	0.5453	0.6704
7.512	6	94.51	-0.27	93.72	0.0111	4227	8	20.74	448.5		7.512	6	94.5	10.153	0.0111	1526.078	1.7545	7.9083	4.5075	2677.445	0.5775	0.6722
7.522	6	95.51	-0.27	93.66	0.0122	4141	9	20.74	447.4		7.522	6	95.5	10.153	0.0122	1527.456	1.7815	8.8968	4.994	2721.152	0.5618	0.674
7.532	6	96.51	-0.27	93.64	0.0076	4416	8	20.75	443.9		7.532	6	96.5	10.153	0.0076	1527.916	1.6976	7.9083	4.6586	2593.755	0.6105	0.6798
7.542	6	97.51	-0.27	94.11	0.015	4291	8	20.75	441.2		7.542	6	97.5	10.153	0.015	1517.185	1.7348	7.9083	4.5586	2632.045	0.5889	0.6844
7.552	6	98.51	-0.28	93.83	0.0088	4409	8	20.75	445.1		7.552	6	98.5	10.152	0.0088	1523.409	1.6998	7.9105	4.6538	2589.48	0.6092	0.6779
7.562	6	99.51	-0.21	94.25	0.0147	4592	8	20.75	452.7		7.562	6	99.5	10.159	0.0147	1514.912	1.6465	7.8948	4.7949	2494.29	0.6401	0.6653
7.572	6	100.51	-0.18	94.55	0.0138	4483	8	20.75	459.7		7.572	6	100.5	10.162	0.0138	1508.61	1.6767	7.8881	4.7045	2529.494	0.6226	0.6541
7.582	6	101.51	-0.12	94.23	0.0114	4216	8	20.75	460.3		7.582	6	101.5	10.168	0.0114	1516.706	1.7553	7.8747	4.4863	2662.25	0.577	0.6532
7.592	6	102.51	-0.07	94.01	0.0084	4158	9	20.75	456.6		7.592	6	102.5	10.173	0.0084	1522.448	1.7726	8.8464	4.9907	2698.688	0.5669	0.659
7.602	6	103.51	-0.13	93.71	0.0064	4257	8	20.75	451.6		7.602	6	103.5	10.167	0.0064	1528.412	1.7428	7.8769	4.5197	2663.721	0.5842	0.667
7.612	6	104.51	-0.08	94.01	0.0084	4458	8	21.35	449.9		7.612	6	104.5	10.172	0.0084	1522.299	1.6822	7.8657	4.6758	2560.858	0.6194	0.6699
7.622	6	105.51	0.03	94.33	0.0136	4431	8	21.7	452		7.622	6	105.5	10.183	0.0136	1516.682	1.6882	7.8412	4.6447	2560.484	0.6159	0.6665
7.632	6	106.51	0	94.67	0.011	4459	7	21.58	460		7.632	6	106.5	10.18	0.011	1508.595	1.6806	6.8669	4.0859	2535.376	0.6203	0.6536
7.642	6	107.51	0.02	94.59	0.0093	4374	7	21.88	469.8		7.642	6	107.5	10.182	0.0093	1510.683	1.7051	6.863	4.0251	2575.807	0.6061	0.6386
7.652	6	108.51	0.07	94.11	0.0082	4106	7	22.16	475.9		7.652	6	108.5	10.187	0.0082	1522.265	1.7867	6.8533	3.8357	2719.876	0.5587	0.6296
7.662	6	109.51	0.08	93.51	0.0063	4156	7	22.39	479.6		7.662	6	109.5	10.188	0.0063	1536.188	1.7706	6.8514	3.8695	2720.005	0.5681	0.6242
7.672	6	110.51	0.12	94.08	0.0077	4480	7	22.57	478.5		7.672	6	110.5	10.192	0.0077	1523.696	1.6726	6.8436	4.0915	2548.572	0.6249	0.6258
7.682	6	111.51	0.13	94.56	0.0088	4543	7	22.71	476.6		7.682	6	111.5	10.193	0.0088	1512.988	1.6546	6.8417	4.1348	2503.446	0.6354	0.6285
7.692	6	112.51	0.17	94.59	0.0062	4718	7	22.82	471.8		7.692	6	112.5	10.197	0.0062	1512.908	1.6062	6.8339	4.2548	2429.992	0.6635	0.6356
7.702	6	113.51	0.2	94.82	0.0081	4831	7	22.9	467.4		7.702	6	113.5	10.2	0.0081	1508.206	1.5761	6.8281	4.3324	2377.034	0.6809	0.6423
7.712	6	114.51	0.26	95.08	0.0085	4818	7	22.98	446.1		7.712	6	114.5	10.206	0.0085	1503.314	1.5785	6.8165	4.3184	2372.982	0.6795	0.6762
7.722	6	115.51	0.26	94.84	0.0046	4253	8	23.04	443.6		7.722	6	115.5	10.206	0.0046	1508.647	1.7374	7.7903	4.484	2621.072	0.5874	0.6804
7.732	6	116.51	0.36	93.65	0.0035	4079	8	23.07	444.1		7.732	6	116.5	10.216	0.0035	1537.165	1.7903	7.7684	4.339	2752.061	0.5566	0.6794
7.742	6	117.51	0.46	93.89	0.0056	4172	8	23.12	441.1		7.742	6	117.5	10.226	0.0056	1533.133	1.759	7.7465	4.4039	2696.804	0.5748	0.6845
7.752	6	118.51	0.53	94.01	0.0035	4242	8	23.15	437.4		7.752	6	118.5	10.233	0.0035	1531.428	1.7361	7.7312	4.4531	2658.776	0.5881	0.6911
7.762	6	119.51	0.58	94.19	0.0054	4422	8	23.19	432.7		7.762	6	119.5	10.238	0.0054	1528.06	1.6817	7.7203	4.5906	2569.808	0.6196	0.6993
7.772	6	120.51	0.68	94.53	0.0026	4435	8	23.23	428.8		7.772	6	120.5	10.248	0.0026	1521.83	1.6764	7.6986	4.5925	2551.125	0.6228	0.7064
7.782	6	121.51	0.73	94.52	0.0021	4477	8	23.26	425.8		7.782	6	121.5	10.253	0.0021	1522.798	1.6635	7.6878	4.6214	2533.215	0.6302	0.7118
7.792	6	122.51	0.93	94.81	0.0026	4599	8	23.3	424.3		7.792	6	122.5	10.273	0.0026	1519.225	1.6263	7.6447	4.7007	2470.72	0.6518	0.7145
7.802	6	123.51	1.14	94.66	0.0009	4402	9	23.33	422.7		7.802	6	123.5	10.294	0.0009	1525.715	1.6784	8.5498	5.0941	2560.713	0.6216	0.7175
7.812	6	124.51	1.19	94.14	0.0005	4410	9	23.36	420.3		7.812	6	124.5	10.299	0.0005	1538.312	1.6752	8.5379	5.0965	2577.046	0.6234	0.722
7.822	6	125.51	3.46	111.19	0.0001	4214	9	23.39	414.3		7.822	6	125.5	10.526	0.0001	1253.095	1.6962	8.0188	4.7276	2125.481	0.6113	0.7336
7.832	6	126.51	4.13	999	0	4147	9	23.4	408.6		7.832	6	126.5	10.593	0	109.0028	1.7057	7.8741	4.6165	185.9221	0.6058	0.7449
7.842	6	127.51	4.24	999	0	4044	10	23.44	397.6		7.842	6	127.5	10.604	0	109.116	1.7358	8.723	5.0254	189.4041	0.5883	0.7678
7.852	6	128.51	3.95	999	0	3906	9	23.46	380.7		7.852	6	128.5	10.575	0	108.8176	1.7852	7.9126	4.4323	194.2633	0.5596	0.8055
7.862	6	129.51	3.72	94.59	0.0001	3916	9	23.47	353.6		7.862	6	129.5	10.552	0.0001	1565.579	1.7858	7.9622	4.4587	2795.804	0.5593	0.8737
7.872	6	130.51	3.59	94.83	0.0002	3920	8	23.5	312.3		7.872	6	130.5	10.539	0.0002	1558.102	1.7867	7.1026	3.9753	2783.82	0.5588	1.0022
7.882	6	131.51	3.4	93.78	0.0002	3999	8	23.51	252		7.882	6	131.5	10.52	0.0002	1579.817	1.7641	7.1395	4.0472	2786.907	0.5719	1.2701
7.892	6	132.51	3.01	99.9	0.0003	3934	7	23.53	181.1		7.892	6	132.5	10.481	0.0003	1441.48	1.7919	6.3141	3.5237	2583.009	0.5557	1.8289
7.902	6	133.51	2.6	100.21	0.0003	4169	5	23.54	127.2		7.902	6	133.5	10.44	0.0003	1429.745	1.7239	4.5612	2.6459	2464.708	0.5952	2.6998
