Geotek MSCL 7.9 - TN336_JPC41-50.raw created at 19:53:10 on 1/26/2016.											Geotek MSCL 7.9 - TN336_JPC41-50.out created at 19:54:00 on 1/26/2016.											
																						
																						
Core Depth	Section	Sect Depth	CTD 	Tr. Time 	PW Amp   	A Gamma  	Mag Sus  	Temp     	NC Res   		SB DEPTH	SECT NUM	SECT DEPTH	CT	PWAmp	PWVel	Den1	MS1	MS1	Imp	FP	RES
m		cm	mm	µsec		cps	SI x 10^-5	°C	mV		m		cm	cm		m/s	g/cc	x 10^-8 (m^3/kg)	x 10^-8 (m^3/kg)			Ohm.m
																						
0.002	1	0.2	5.11	101.88	0.0005	9797	14	19.51	276.9		0.002	1	0.2	10.691	0.0005	1431.383	0.7406	11.9296	16.107	1060.15	1.1655	1.1446
0.012	1	1.2	5.01	999	0	5267	17	19.52	340.6		0.012	1	1.2	10.681	0.0003	1449.2635	1.4036	14.5248	10.3486	154.2625	0.781	0.9106
0.022	1	2.2	4.7	99.78	0.0001	5143	20	19.52	445.5		0.022	1	2.2	10.65	0.0001	1467.144	1.4354	17.2309	12.0039	2106.007	0.7625	0.6772
0.032	1	3.2	4.44	95.79	0.0002	5074	21	19.51	547.8		0.032	1	3.2	10.624	0.0002	1548.688	1.4549	18.2197	12.5234	2253.113	0.7512	0.539
0.042	1	4.2	4.35	999	0	5146	22	19.52	626		0.042	1	4.2	10.615	0.00035	1542.8295	1.4395	19.1337	13.292	157.2347	0.7602	0.4652
0.052	1	5.2	1.3	94.27	0.0005	5158	24	19.53	679.5		0.052	1	5.2	10.31	0.0005	1536.971	1.4793	22.6977	15.3439	2273.582	0.7371	0.425
0.062	1	6.2	0.77	94.47	0.0024	5086	24	19.52	711.4		0.062	1	6.2	10.257	0.0024	1524.524	1.504	23.0374	15.3172	2292.921	0.7227	0.404
0.072	1	7.2	0.74	94.48	0.002	5165	24	19.52	726.7		0.072	1	7.2	10.254	0.002	1523.852	1.4857	23.0568	15.5193	2263.975	0.7334	0.3946
0.082	1	8.2	0.6	94.43	0.001	5212	24	19.53	734		0.082	1	8.2	10.24	0.001	1522.903	1.4767	23.1479	15.6752	2248.898	0.7386	0.3903
0.092	1	9.2	0.35	93.59	0.0018	5150	23	19.52	734.6		0.092	1	9.2	10.215	0.0018	1538.404	1.4949	22.3403	14.9442	2299.78	0.728	0.3899
0.102	1	10.2	0.01	94.12	0.004	5076	23	19.52	733.6		0.102	1	10.2	10.181	0.004	1521.141	1.5177	22.5563	14.8624	2308.593	0.7148	0.3905
0.112	1	11.2	0.01	93.93	0.0011	5070	23	19.53	728.1		0.112	1	11.2	10.181	0.0011	1525.472	1.5191	22.5563	14.8482	2317.386	0.714	0.3938
0.122	1	12.2	-0.04	94.08	0.0019	5181	22	19.53	719.8		0.122	1	12.2	10.176	0.0019	1521.304	1.4933	21.6062	14.4688	2271.756	0.7289	0.3988
0.132	1	13.2	-0.1	94.05	0.0012	5016	22	19.53	711.3		0.132	1	13.2	10.17	0.0012	1521.089	1.534	21.643	14.109	2333.327	0.7053	0.404
0.142	1	14.2	-0.05	94.84	0.005	5028	22	19.53	704.6		0.142	1	14.2	10.175	0.005	1504.065	1.5303	21.6123	14.1231	2301.641	0.7075	0.4083
0.152	1	15.2	-0.01	95.4	0.0036	5005	22	19.52	697		0.152	1	15.2	10.179	0.0036	1492.303	1.5353	21.5878	14.0606	2291.195	0.7046	0.4132
0.162	1	16.2	-0.06	95.83	0.0017	5086	23	19.53	690.6		0.162	1	16.2	10.174	0.0017	1482.226	1.5163	22.6011	14.9055	2247.49	0.7156	0.4175
0.172	1	17.2	0.05	96.14	0.001	5266	23	19.53	681.2		0.172	1	17.2	10.185	0.001	1477.157	1.4721	22.5307	15.3048	2174.581	0.7412	0.4238
0.182	1	18.2	0.09	96.18	0.0006	5136	23	19.54	675.3		0.182	1	18.2	10.189	0.0006	1476.881	1.5021	22.5052	14.9829	2218.365	0.7239	0.4279
0.192	1	19.2	0.13	96.22	0.0005	5189	23	19.53	675.2		0.192	1	19.2	10.193	0.0005	1476.604	1.4889	22.4797	15.098	2198.548	0.7315	0.4279
0.202	1	20.2	0.21	96.1	0.0004	5067	23	19.54	671		0.202	1	20.2	10.201	0.0004	1480.337	1.5169	22.4289	14.7863	2245.487	0.7153	0.4309
0.212	1	21.2	0.32	96.08	0.0006	5042	24	19.53	669.6		0.212	1	21.2	10.212	0.0006	1482.363	1.5213	23.3314	15.3363	2255.144	0.7127	0.4319
0.222	1	22.2	0.35	95.89	0.001	5292	24	19.53	666.3		0.222	1	22.2	10.215	0.001	1486.9	1.4618	23.3116	15.9467	2173.622	0.7472	0.4343
0.232	1	23.2	0.44	96.29	0.0011	5275	24	19.54	662.1		0.232	1	23.2	10.224	0.0011	1479.595	1.4645	23.2525	15.8779	2166.8	0.7457	0.4373
0.242	1	24.2	0.48	96.04	0.0008	4996	25	19.53	639.7		0.242	1	24.2	10.228	0.0008	1485.548	1.5302	24.194	15.811	2273.186	0.7075	0.4542
0.252	1	25.2	0.53	96.47	0.0009	4951	25	19.53	633.8		0.252	1	25.2	10.233	0.0009	1477.05	1.5406	24.16	15.6822	2275.54	0.7015	0.4589
0.262	1	26.2	0.58	96.37	0.0006	4963	25	19.54	630.1		0.262	1	26.2	10.238	0.0006	1479.907	1.5369	24.1259	15.6982	2274.414	0.7037	0.4619
0.272	1	27.2	0.64	96.75	0.0006	5129	25	19.54	631.3		0.272	1	27.2	10.244	0.0006	1472.685	1.4957	24.0852	16.1034	2202.634	0.7276	0.4609
0.282	1	28.2	0.63	96.5	0.0005	4935	25	19.54	634.5		0.282	1	28.2	10.243	0.0005	1477.853	1.5431	24.092	15.6129	2280.454	0.7001	0.4584
0.292	1	29.2	0.7	96.28	0.0008	4868	25	19.53	646.9		0.292	1	29.2	10.25	0.0008	1483.572	1.5589	24.0446	15.4239	2312.771	0.6909	0.4487
0.302	1	30.2	0.78	96	0.0018	4811	26	19.53	646.7		0.302	1	30.2	10.258	0.0018	1490.772	1.5723	24.9502	15.8685	2343.946	0.6831	0.4488
0.312	1	31.2	0.91	96.08	0.0038	4771	26	19.54	617.4		0.312	1	31.2	10.271	0.0038	1490.927	1.5807	24.8592	15.7269	2356.684	0.6783	0.4724
0.322	1	32.2	1.14	96.13	0.0032	4817	26	19.54	610.7		0.322	1	32.2	10.294	0.0032	1493.182	1.5653	24.6995	15.7798	2337.224	0.6872	0.4781
0.332	1	33.2	1.31	96.24	0.0035	4811	26	19.53	600.7		0.332	1	33.2	10.311	0.0035	1493.266	1.5642	24.5823	15.7154	2335.799	0.6878	0.4869
0.342	1	34.2	1.21	95.73	0.0022	4759	27	19.53	588.2		0.342	1	34.2	10.301	0.0022	1502.918	1.5792	25.5993	16.2102	2373.414	0.6791	0.4984
0.352	1	35.2	2.63	96.67	0.0048	4735	26	19.54	576.2		0.352	1	35.2	10.443	0.0048	1503.022	1.5639	23.6986	15.1533	2350.614	0.688	0.5098
0.362	1	36.2	2.69	97.06	0.0006	4836	27	19.54	566.4		0.362	1	36.2	10.449	0.0006	1495.492	1.5373	24.5694	15.9827	2298.944	0.7035	0.5196
0.372	1	37.2	2.92	999	0	4710	27	19.54	556.5		0.372	1	37.2	10.472	0	1443.6455	1.5661	24.4146	15.5897	168.7563	0.6867	0.5297
0.382	1	38.2	3.09	999	0	4681	27	19.54	536		0.382	1	38.2	10.489	0	107.9326	1.5711	24.3011	15.4676	169.5723	0.6838	0.5521
0.392	1	39.2	3.05	999	0	4714	27	19.55	499.9		0.392	1	39.2	10.485	0	107.8915	1.5631	24.3277	15.5639	168.6443	0.6885	0.5964
0.402	1	40.2	2.82	108.41	0.0001	4737	28	19.54	442		0.402	1	40.2	10.462	0.0001	1288.106	1.5606	25.3885	16.2688	2010.177	0.6899	0.6831
0.412	1	41.2	2.6	96.47	0.0007	4669	28	19.54	356.9		0.412	1	41.2	10.44	0.0007	1506.928	1.5816	25.5426	16.1496	2383.402	0.6777	0.865
0.422	1	42.2	5.91	999	0	4700	29	19.55	274.5		0.422	1	42.2	10.771	0	110.8344	1.5251	24.1896	15.8607	169.0369	0.7105	1.1553
0.432	1	43.2	6.56	999	0	4902	29	19.55	232.9		0.432	1	43.2	10.836	0	111.5033	1.4665	23.7772	16.2139	163.5165	0.7445	1.3855
0.442	2	0.31	6.53	999	0	6815	30	19.55	245		0.442	2	0.3	10.833	0	111.4724	1.1	24.6166	22.3789	122.6188	0.9571	1.3102
0.452	2	1.31	5.98	142.33	0.0001	4701	29	19.55	305.6		0.452	2	1.3	10.778	0.0001	936.0778	1.5239	24.1447	15.8442	1426.476	0.7112	1.0263
0.462	2	2.31	5.93	999	0	4682	30	19.55	391.5		0.462	2	2.3	10.773	0.0001	980.1039	1.5294	25.0105	16.3529	169.5441	0.708	0.781
0.472	2	3.31	5.58	132.04	0.0001	4744	30	19.55	466.6		0.472	2	3.3	10.738	0.0001	1024.13	1.5187	25.2444	16.6224	1555.341	0.7142	0.6435
0.482	2	4.31	4.97	999	0	4821	31	19.55	523.2		0.482	2	4.3	10.677	0.0001	1088.9145	1.5081	26.5149	17.5813	165.6934	0.7203	0.5671
0.492	2	5.31	0.66	116	0.0001	4759	31	19.54	561.5		0.492	2	5.3	10.246	0.0001	1153.699	1.5877	29.8488	18.8003	1831.706	0.6742	0.5245
0.502	2	6.31	-0.03	105.89	0.0001	4853	31	19.55	580.9		0.502	2	6.3	10.177	0.0001	1293.139	1.574	30.4365	19.3376	2035.339	0.6822	0.5052
0.512	2	7.31	-0.16	115.54	0.0001	4849	32	19.55	592.3		0.512	2	7.3	10.164	0.0001	1150.424	1.577	31.5345	19.9965	1814.216	0.6804	0.4945
0.522	2	8.31	-0.28	110.39	0.0003	4866	31	19.56	598		0.522	2	8.3	10.152	0.0003	1220.192	1.5745	30.6534	19.4689	1921.171	0.6819	0.4893
0.532	2	9.31	-0.29	115.23	0.0005	4775	32	19.56	601.2		0.532	2	9.3	10.151	0.0005	1152.999	1.5983	31.6512	19.8029	1842.855	0.668	0.4864
0.542	2	10.31	-0.33	115.21	0.0007	4761	33	19.56	604.1		0.542	2	10.3	10.147	0.0007	1152.806	1.6026	32.6775	20.3898	1847.535	0.6655	0.4839
0.552	2	11.31	-0.34	115.23	0.0005	4816	34	19.56	600.8		0.552	2	11.3	10.146	0.0005	1152.431	1.5884	33.6773	21.2026	1830.47	0.6738	0.4868
0.562	2	12.31	-0.33	115.14	0.0004	4770	35	19.55	595.9		0.562	2	12.3	10.147	0.0004	1153.724	1.6003	34.6579	21.6576	1846.262	0.6669	0.4913
0.572	2	13.31	-0.33	116.16	0.0003	4727	36	19.56	593.3		0.572	2	13.3	10.147	0.0003	1140.497	1.6117	35.6481	22.1186	1838.116	0.6603	0.4936
0.582	2	14.31	-0.28	115.56	0.0004	4780	37	19.56	592.9		0.582	2	14.3	10.152	0.0004	1148.806	1.5968	36.5863	22.9117	1834.461	0.6689	0.4939
0.592	2	15.31	-0.25	115.89	0.0008	4752	39	19.56	596.5		0.592	2	15.3	10.155	0.0008	1144.87	1.6038	38.531	24.0254	1836.099	0.6649	0.4907
0.602	2	16.31	-0.22	115.61	0.0006	4770	39	19.56	600.8		0.602	2	16.3	10.158	0.0006	1148.835	1.5985	38.4982	24.0835	1836.448	0.6679	0.4868
0.612	2	17.31	-0.14	116.15	0.0004	4799	40	19.56	605.2		0.612	2	17.3	10.166	0.0004	1142.761	1.5897	39.3957	24.7824	1816.605	0.673	0.4829
0.622	2	18.31	-0.13	106.64	0.0004	4769	42	19.56	609.7		0.622	2	18.3	10.167	0.0004	1279.673	1.5974	41.3537	25.8885	2044.122	0.6686	0.4789
0.632	2	19.31	-0.07	115.44	0.0006	4799	43	19.55	613.2		0.632	2	19.3	10.173	0.0006	1152.748	1.5886	42.2663	26.6065	1831.22	0.6737	0.476
0.642	2	20.31	-0.03	116.12	0.0004	4802	44	19.56	614		0.642	2	20.3	10.177	0.0004	1144.383	1.5872	43.2002	27.2185	1816.322	0.6745	0.4752
0.652	2	21.31	0.03	116.02	0.0008	4853	45	19.56	612.2		0.652	2	21.3	10.183	0.0008	1146.347	1.573	44.1069	28.0395	1803.233	0.6827	0.4768
0.662	2	22.31	0.07	116.12	0.0008	4881	45	19.56	605.9		0.662	2	22.3	10.187	0.0008	1145.508	1.5652	44.0569	28.1471	1792.994	0.6872	0.4823
0.672	2	23.31	0.12	111.35	0.001	4588	46	19.56	603.8		0.672	2	23.3	10.192	0.001	1211.027	1.6423	44.9722	27.3842	1988.829	0.6425	0.4841
0.682	2	24.31	0.18	107.35	0.001	4532	47	19.56	606.2		0.682	2	24.3	10.198	0.001	1272.206	1.6569	45.8719	27.6852	2107.933	0.634	0.482
0.692	2	25.31	0.17	107.87	0.0007	4547	47	19.56	607.7		0.692	2	25.3	10.197	0.0007	1263.882	1.6529	45.8849	27.7608	2089.03	0.6364	0.4807
0.702	2	26.31	0.17	107.15	0.0008	4554	48	19.57	608.7		0.702	2	26.3	10.197	0.0008	1275.263	1.6509	46.8612	28.385	2105.344	0.6375	0.4799
0.712	2	27.31	0.17	106.54	0.0008	4691	49	19.56	606		0.712	2	27.3	10.197	0.0008	1285.066	1.6134	47.8374	29.6502	2073.319	0.6593	0.4822
0.722	2	28.31	0.21	106.54	0.0004	4689	51	19.57	600.5		0.722	2	28.3	10.201	0.0004	1285.57	1.6133	49.7337	30.8273	2074.01	0.6593	0.4871
0.732	2	29.31	0.22	112.43	0.0005	4642	54	19.56	595.8		0.732	2	29.3	10.202	0.0005	1196.856	1.6258	52.6443	32.3796	1945.904	0.6521	0.4913
0.742	2	30.31	0.18	95.86	0.001	4611	56	19.56	590.3		0.742	2	30.3	10.198	0.001	1485.073	1.635	54.6559	33.4295	2428.038	0.6468	0.4964
0.752	2	31.31	0.21	96.57	0.002	4566	59	19.57	581.2		0.752	2	31.3	10.201	0.002	1470.308	1.6469	57.535	34.9349	2421.479	0.6398	0.505
0.762	2	32.31	0.22	96.52	0.0011	4532	62	19.57	575.9		0.762	2	32.3	10.202	0.0011	1471.513	1.6563	60.4434	36.4939	2437.212	0.6344	0.5101
0.772	2	33.31	0.22	94.93	0.0011	4575	66	19.57	572.7		0.772	2	33.3	10.202	0.0011	1506.052	1.6443	64.343	39.132	2476.337	0.6414	0.5133
0.782	2	34.31	0.26	94.98	0.0007	4663	70	19.57	565.9		0.782	2	34.3	10.206	0.0007	1505.532	1.6195	68.1654	42.0901	2438.229	0.6557	0.5201
0.792	2	35.31	0.27	101.24	0.0012	4526	73	19.57	559.6		0.792	2	35.3	10.207	0.0012	1378.393	1.6571	71.0667	42.8852	2284.187	0.6339	0.5265
0.802	2	36.31	0.27	95.28	0.0013	4364	75	19.57	546.4		0.802	2	36.3	10.207	0.0013	1499.045	1.7038	73.0137	42.8526	2554.125	0.6068	0.5405
0.812	2	37.31	0.28	101.17	0.0016	4347	76	19.57	539.5		0.812	2	37.3	10.208	0.0016	1379.832	1.7087	73.9663	43.288	2357.722	0.604	0.5482
0.822	2	38.31	0.33	96.54	0.002	4374	77	19.58	529.7		0.822	2	38.3	10.213	0.002	1472.675	1.6999	74.8338	44.0228	2503.379	0.6091	0.5594
0.832	2	39.31	0.28	96.34	0.0015	4456	77	19.57	521.5		0.832	2	39.3	10.208	0.0015	1476.211	1.6769	74.9396	44.6901	2475.418	0.6225	0.5692
0.842	2	40.31	0.28	96.57	0.0012	4519	78	19.57	513.4		0.842	2	40.3	10.208	0.0012	1471.317	1.6589	75.9128	45.7597	2440.837	0.6329	0.579
0.852	2	41.31	0.24	99.41	0.0023	4488	81	19.57	504.5		0.852	2	41.3	10.204	0.0023	1412.905	1.6684	78.9218	47.3045	2357.261	0.6274	0.5904
0.862	2	42.31	0.23	100.09	0.0014	4384	84	19.57	494.2		0.862	2	42.3	10.203	0.0014	1399.589	1.6986	81.8679	48.197	2377.356	0.6099	0.6039
0.872	2	43.31	0.23	101.36	0.0017	4309	87	19.58	489.3		0.872	2	43.3	10.203	0.0017	1375.624	1.7209	84.7918	49.2719	2367.303	0.5969	0.6106
0.882	2	44.31	0.18	100.58	0.0008	4330	91	19.58	487.8		0.882	2	44.3	10.198	0.0008	1389.563	1.7154	88.8158	51.7743	2383.716	0.6001	0.6126
0.892	2	45.31	0.17	107.2	0.0008	4286	94	19.58	485.3		0.892	2	45.3	10.197	0.0008	1274.466	1.7289	91.7698	53.0814	2203.36	0.5923	0.6161
0.902	2	46.31	0.12	105.31	0.0006	4326	96	19.58	484.1		0.902	2	46.3	10.192	0.0006	1304.659	1.7177	93.8551	54.6416	2240.948	0.5988	0.6178
0.912	2	47.31	0.12	96.16	0.0006	4370	98	19.58	481.9		0.912	2	47.3	10.192	0.0006	1477.744	1.7046	95.8104	56.208	2518.916	0.6064	0.621
0.922	2	48.31	0.19	101.52	0.0005	4276	101	19.58	478.2		0.922	2	48.3	10.199	0.0005	1372.124	1.7315	98.5479	56.9133	2375.894	0.5908	0.6262
0.932	2	49.31	0.37	96.63	0.0006	4224	102	19.57	476.2		0.932	2	49.3	10.217	0.0006	1471.342	1.7444	99.0185	56.7638	2566.603	0.5833	0.6292
0.942	2	50.31	0.43	101.89	0.001	4195	105	19.58	474.3		0.942	2	50.3	10.223	0.001	1368.541	1.7524	101.7584	58.0697	2398.163	0.5787	0.6319
0.952	2	51.31	0.47	101.42	0.0007	4241	106	19.58	472.9		0.952	2	51.3	10.227	0.0007	1377.745	1.7375	102.6116	59.0581	2393.787	0.5873	0.6341
0.962	2	52.31	0.52	101.2	0.0012	4286	108	19.58	471		0.962	2	52.3	10.232	0.0012	1382.516	1.7229	104.4004	60.5945	2381.986	0.5957	0.6367
0.972	2	53.31	0.57	100.82	0.0005	4239	110	19.58	470.1		0.972	2	53.3	10.237	0.0005	1390.33	1.7364	106.184	61.1524	2414.145	0.5879	0.6382
0.982	2	54.31	0.79	100.09	0.0007	4214	113	19.58	468.5		0.982	2	54.3	10.259	0.0007	1407.27	1.7403	108.4067	62.2909	2449.114	0.5857	0.6406
0.992	2	55.31	0.91	94.45	0.0005	4163	116	19.58	466.3		0.992	2	55.3	10.271	0.0005	1527.059	1.7541	110.9103	63.2285	2678.644	0.5777	0.6439
1.002	2	56.31	1.05	94.1	0.0011	4054	119	19.59	464.6		1.002	2	56.3	10.285	0.0011	1537.14	1.7864	113.3329	63.4421	2745.945	0.5589	0.6465
1.012	2	57.31	1.04	94.42	0.0013	4219	123	19.58	462		1.012	2	57.3	10.284	0.0013	1529.674	1.7346	117.1752	67.5531	2653.318	0.589	0.6505
1.022	2	58.31	1.09	107.31	0.0004	4370	126	19.59	456.4		1.022	2	58.3	10.289	0.0004	1284.199	1.6885	119.8651	70.9891	2168.368	0.6157	0.6594
1.032	2	59.31	1.12	105.2	0.0003	4325	130	19.59	451.2		1.032	2	59.3	10.292	0.0003	1319.318	1.7013	123.5665	72.6325	2244.499	0.6083	0.6677
1.042	2	60.31	1.1	101.01	0.001	4117	134	19.58	442		1.042	2	60.3	10.29	0.001	1393.931	1.7654	127.4399	72.1895	2460.779	0.5711	0.6831
1.052	2	61.31	1.09	95.75	0.001	3995	138	19.59	436.2		1.052	2	61.3	10.289	0.001	1500.729	1.805	131.2808	72.7319	2708.81	0.5481	0.6931
1.062	2	62.31	0.99	100.92	0.0012	4012	143	19.59	432.2		1.062	2	62.3	10.279	0.0012	1394.141	1.8011	136.4192	75.7401	2511.054	0.5504	0.7002
1.072	2	63.31	0.94	94.32	0.0009	4055	146	19.59	431.7		1.072	2	63.3	10.274	0.0009	1530.463	1.788	139.4766	78.0076	2736.449	0.558	0.7012
1.082	2	64.31	0.89	94.12	0.002	4117	152	19.58	434.7		1.082	2	64.3	10.269	0.002	1534.29	1.769	145.4124	82.2021	2714.1	0.569	0.6958
1.092	2	65.31	0.79	94.7	0.0021	3936	157	19.59	438.8		1.092	2	65.3	10.259	0.0021	1519.627	1.83	150.6182	82.3044	2780.94	0.5336	0.6885
1.102	2	66.31	0.68	94.8	0.0037	4128	164	19.59	445.4		1.102	2	66.3	10.248	0.0037	1515.752	1.7691	157.8211	89.2102	2681.505	0.569	0.6773
1.112	2	67.31	0.66	94.83	0.003	4011	170	19.59	451.4		1.112	2	67.3	10.246	0.003	1514.784	1.8073	163.6871	90.571	2737.637	0.5468	0.6673
1.122	2	68.31	0.63	94.42	0.0038	4067	177	19.59	456.2		1.122	2	68.3	10.243	0.0038	1523.576	1.7895	170.5712	95.3175	2726.448	0.5571	0.6597
1.132	2	69.31	0.56	94.27	0.0034	3932	183	19.59	460.3		1.132	2	69.3	10.236	0.0034	1525.939	1.8355	176.7013	96.2697	2800.836	0.5305	0.6532
1.142	2	70.31	0.54	93.69	0.0031	3847	184	19.58	462.6		1.142	2	70.3	10.234	0.0031	1538.947	1.8651	177.7671	95.3114	2870.319	0.5133	0.6496
1.152	2	71.31	0.5	93.52	0.0029	3798	182	19.6	464.3		1.152	2	71.3	10.23	0.0029	1542.289	1.8831	176.0332	93.4786	2904.343	0.5028	0.6469
1.162	2	72.31	0.43	93.26	0.0029	3820	176	19.59	462.1		1.162	2	72.3	10.223	0.0029	1547.298	1.8766	170.5664	90.8901	2903.693	0.5066	0.6503
1.172	2	73.31	0.36	93.47	0.0042	3959	166	19.59	462.9		1.172	2	73.3	10.216	0.0042	1541.34	1.8299	161.1933	88.0866	2820.562	0.5337	0.6492
1.182	2	74.31	0.3	93.69	0.0036	4000	158	19.59	461.2		1.182	2	74.3	10.21	0.0036	1535.338	1.8173	153.6852	84.5679	2790.169	0.541	0.6517
1.192	2	75.31	0.23	93.96	0.0026	3996	151	19.59	459.8		1.192	2	75.3	10.203	0.0026	1528.082	1.8199	147.1673	80.8667	2780.92	0.5395	0.654
1.202	2	76.31	0.12	94.09	0.0043	3969	146	19.6	462.7		1.202	2	76.3	10.192	0.0043	1523.468	1.8309	142.7379	77.9613	2789.289	0.5331	0.6494
1.212	2	77.31	0.04	94.34	0.0071	4088	143	19.59	466.7		1.212	2	77.3	10.184	0.0071	1516.605	1.7931	140.1221	78.147	2719.362	0.5551	0.6433
1.222	2	78.31	-0.08	94.48	0.0063	4120	143	19.59	469.3		1.222	2	78.3	10.172	0.0063	1511.666	1.7849	140.5998	78.7732	2698.126	0.5598	0.6394
1.232	2	79.31	-0.14	94.07	0.0038	3947	143	19.6	469.9		1.232	2	79.3	10.166	0.0038	1520.036	1.843	140.8395	76.4182	2801.443	0.5261	0.6384
1.242	2	80.31	-0.19	93.42	0.0045	3943	143	19.59	468.2		1.242	2	80.3	10.161	0.0045	1534.199	1.8453	141.0397	76.4327	2831.025	0.5248	0.641
1.252	2	81.31	-0.24	93.59	0.0041	3934	145	19.6	464.9		1.252	2	81.3	10.156	0.0041	1529.518	1.8493	143.2157	77.445	2828.473	0.5225	0.646
1.262	2	82.31	-0.31	94.6	0.0014	4021	146	19.6	460.9		1.262	2	82.3	10.149	0.0014	1505.563	1.8212	144.4908	79.337	2741.973	0.5387	0.6523
1.272	2	83.31	-0.38	105.24	0.0012	3986	149	19.6	454.4		1.272	2	83.3	10.142	0.0012	1299.423	1.8342	147.7538	80.5559	2383.373	0.5312	0.6626
1.282	2	84.31	-0.36	93.5	0.0012	3975	152	19.6	449.3		1.282	2	84.3	10.144	0.0012	1529.784	1.8375	150.643	81.9817	2811.008	0.5293	0.6709
1.292	2	85.31	-0.33	93.7	0.0022	3929	156	19.6	442		1.292	2	85.3	10.147	0.0022	1525.635	1.8526	154.4753	83.3826	2826.406	0.5205	0.6831
1.302	2	86.31	-0.33	93.68	0.0051	3919	162	19.6	437.3		1.302	2	86.3	10.147	0.0051	1526.094	1.856	160.4166	86.4295	2832.494	0.5185	0.6911
1.312	2	87.31	-0.27	93.92	0.0063	3936	168	19.6	437.3		1.312	2	87.3	10.153	0.0063	1521.505	1.8491	166.0742	89.8126	2813.446	0.5226	0.6912
1.322	2	88.31	-0.28	92.89	0.0029	3722	174	19.6	436.7		1.322	2	88.3	10.152	0.0029	1545.205	1.9253	172.0544	89.3671	2974.913	0.4784	0.6922
1.332	2	89.31	-0.21	92.17	0.0018	3705	178	19.6	436.6		1.332	2	89.3	10.159	0.0018	1563.404	1.9302	175.6597	91.0053	3017.705	0.4755	0.6924
1.342	2	90.31	-0.21	92.54	0.0022	3664	178	19.61	434		1.342	2	90.3	10.159	0.0022	1554.552	1.9455	175.6597	90.2883	3024.448	0.4666	0.697
1.352	2	91.31	-0.22	92.27	0.0005	3696	173	19.61	459		1.352	2	91.3	10.158	0.0005	1560.848	1.9337	170.774	88.3124	3018.289	0.4735	0.6552
1.362	2	92.31	-0.22	103.2	0.0012	3889	166	19.61	452.9		1.362	2	92.3	10.158	0.0012	1336.403	1.8644	163.864	87.8916	2491.574	0.5137	0.6649
1.372	2	93.31	-0.22	104.85	0.0014	3893	160	19.61	451.3		1.372	2	93.3	10.158	0.0014	1308.009	1.863	157.9412	84.7779	2436.822	0.5145	0.6676
1.382	2	94.31	-0.22	92.65	0.0015	3736	156	19.61	449		1.382	2	94.3	10.158	0.0015	1551.787	1.919	153.9927	80.2476	2977.831	0.482	0.6713
1.392	2	95.31	-0.23	92.92	0.0025	3806	153	19.61	449		1.392	2	95.3	10.157	0.0025	1545.261	1.8938	151.0743	79.7727	2926.428	0.4966	0.6714
1.402	2	96.31	-0.17	93.17	0.0027	3829	151	19.61	450.8		1.402	2	96.3	10.163	0.0027	1540.315	1.8845	148.8454	78.9838	2902.734	0.502	0.6684
1.412	2	97.31	-0.18	93.41	0.0026	3824	148	19.6	451.8		1.412	2	97.3	10.162	0.0026	1534.582	1.8865	145.9297	77.3562	2894.935	0.5009	0.6667
1.422	2	98.31	-0.13	94.17	0.0011	3818	146	19.61	453.5		1.422	2	98.3	10.167	0.0011	1517.916	1.8877	143.7534	76.1539	2865.323	0.5002	0.664
1.432	2	99.31	-0.09	92.71	0.0002	3820	144	19.61	453.8		1.432	2	99.3	10.171	0.0002	1552.35	1.8862	141.6232	75.0833	2928.068	0.501	0.6636
1.442	2	100.31	-0.03	98.09	0.0004	3831	142	19.62	452.4		1.442	2	100.3	10.177	0.0004	1435.402	1.8812	139.4187	74.1113	2700.287	0.5039	0.6658
1.452	2	101.31	-0.03	104.82	0.0004	3799	141	19.62	453.6		1.452	2	101.3	10.177	0.0004	1310.962	1.8926	138.4368	73.1469	2481.111	0.4973	0.6639
1.462	2	102.31	-0.03	104.52	0.0004	3786	141	19.62	455.1		1.462	2	102.3	10.177	0.0004	1316.048	1.8972	138.4368	72.9671	2496.871	0.4946	0.6614
1.472	2	103.31	0.02	98.97	0.0011	3857	143	19.62	456.1		1.472	2	103.3	10.182	0.0011	1418.501	1.8711	140.2016	74.9286	2654.208	0.5098	0.6598
1.482	2	104.31	0.01	92.52	0.0011	3763	146	19.62	459.5		1.482	2	104.3	10.181	0.0011	1558.396	1.9048	143.1835	75.1697	2968.436	0.4903	0.6545
1.492	2	105.31	0.02	92.64	0.0026	3756	149	19.61	462		1.492	2	105.3	10.182	0.0026	1555.691	1.9072	146.0841	76.598	2966.943	0.4889	0.6506
1.502	2	106.31	0.02	93.66	0.0017	3830	151	19.62	465.7		1.502	2	106.3	10.182	0.0017	1531.819	1.8806	148.045	78.7207	2880.794	0.5043	0.6448
1.512	2	107.31	0.01	104.92	0.0011	3883	153	19.61	470.1		1.512	2	107.3	10.181	0.0011	1309.79	1.8623	150.0484	80.5735	2439.164	0.5149	0.6381
1.522	2	108.31	0.02	92.97	0.0012	3844	153	19.62	472.1		1.522	2	108.3	10.182	0.0012	1547.887	1.8757	150.0059	79.9733	2903.369	0.5071	0.6352
1.532	2	109.31	-0.05	93.76	0.0021	3914	151	19.77	476.6		1.532	2	109.3	10.175	0.0021	1528.466	1.8526	148.3392	80.0687	2831.712	0.5205	0.6286
1.542	2	110.31	-0.1	93.76	0.0029	3929	149	19.78	479.6		1.542	2	110.3	10.17	0.0029	1527.715	1.8484	146.5823	79.3014	2823.858	0.523	0.6242
1.552	2	111.31	-0.04	93.89	0.0029	3947	146	19.78	483		1.552	2	111.3	10.176	0.0029	1525.637	1.8412	143.3866	77.8767	2809.003	0.5271	0.6194
1.562	2	112.31	-0.03	94.12	0.0018	3930	143	19.78	486.1		1.562	2	112.3	10.177	0.0018	1520.544	1.8468	140.4005	76.0234	2808.15	0.5239	0.615
1.572	2	113.31	-0.09	93.83	0.0015	3984	139	19.78	486.4		1.572	2	113.3	10.171	0.0015	1526.26	1.8296	136.7057	74.7182	2792.474	0.5339	0.6146
1.582	2	114.31	-0.14	94.17	0.0017	3928	137	19.79	486.7		1.582	2	114.3	10.166	0.0017	1517.766	1.8495	134.9302	72.9554	2807.092	0.5223	0.6142
1.592	2	115.31	-0.08	93.82	0.0013	3996	134	19.78	487.1		1.592	2	115.3	10.172	0.0013	1526.64	1.8254	131.7509	72.1755	2786.763	0.5363	0.6136
1.602	2	116.31	-0.08	93.83	0.0019	3943	132	19.79	486.6		1.602	2	116.3	10.172	0.0019	1526.411	1.8433	129.7844	70.4094	2813.607	0.5259	0.6144
1.612	2	117.31	-0.13	93.9	0.0012	3912	132	19.79	487.5		1.612	2	117.3	10.167	0.0012	1524.059	1.8548	129.9688	70.0718	2826.817	0.5193	0.6131
1.622	2	118.31	-0.19	93.67	0.0024	3893	131	19.78	489.8		1.622	2	118.3	10.161	0.0024	1528.43	1.8625	129.2042	69.3732	2846.625	0.5148	0.6098
1.632	2	119.31	-0.18	94.04	0.0034	3929	131	19.78	491.3		1.632	2	119.3	10.162	0.0034	1520.12	1.8499	129.1675	69.825	2812.031	0.5221	0.6078
1.642	2	120.31	-0.18	94.24	0.002	4002	132	19.79	494.2		1.642	2	120.3	10.162	0.002	1515.585	1.8252	130.1535	71.3086	2766.27	0.5364	0.6039
1.652	2	121.31	-0.13	94.43	0.0017	4049	133	19.79	496		1.652	2	121.3	10.167	0.0017	1512.046	1.8088	130.9534	72.3991	2734.947	0.546	0.6015
1.662	2	122.31	-0.1	94.55	0.002	4067	135	19.79	501.7		1.662	2	122.3	10.17	0.002	1509.798	1.8024	132.8095	73.6868	2721.186	0.5497	0.5939
1.672	2	123.31	-0.03	94.66	0.0025	4157	139	19.77	504.3		1.672	2	123.3	10.177	0.0025	1508.374	1.7722	136.4732	77.007	2673.166	0.5672	0.5906
1.682	2	124.31	0.03	94.84	0.0027	4183	145	19.78	502.8		1.682	2	124.3	10.183	0.0027	1505.248	1.763	142.1222	80.6144	2653.734	0.5725	0.5925
1.692	2	125.31	0.12	94.7	0.0021	4033	151	19.79	499.6		1.692	2	125.3	10.192	0.0021	1509.702	1.8096	147.6262	81.58	2731.938	0.5455	0.5967
1.702	2	126.31	0.22	94.53	0.0028	4008	158	19.77	495.6		1.702	2	126.3	10.202	0.0028	1514.999	1.8161	154.0332	84.8169	2751.34	0.5417	0.602
1.712	2	127.31	0.27	94.52	0.002	3798	164	19.77	492.8		1.712	2	127.3	10.207	0.002	1515.966	1.8874	159.6567	84.5916	2861.207	0.5004	0.6058
1.722	2	128.31	0.37	94.17	0.0011	3823	167	19.79	488.3		1.722	2	128.3	10.217	0.0011	1525.381	1.8767	162.1185	86.3866	2862.626	0.5066	0.612
1.732	2	129.31	0.48	94.07	0.0028	3898	171	19.78	469		1.732	2	129.3	10.228	0.0028	1529.306	1.8485	165.4872	89.5236	2826.97	0.5229	0.6398
1.742	2	130.31	0.61	94.38	0.0021	3886	172	19.78	463.3		1.742	2	130.3	10.241	0.0021	1524.185	1.8503	165.8462	89.6315	2820.216	0.5219	0.6485
1.752	2	131.31	0.65	94.5	0.0019	3828	173	19.78	457.4		1.752	2	131.3	10.245	0.0019	1522.062	1.8698	166.6227	89.1138	2845.913	0.5106	0.6577
1.762	2	132.31	0.79	94.43	0.0018	3976	175	19.79	452.6		1.762	2	132.3	10.259	0.0018	1525.729	1.8166	167.8865	92.4186	2771.62	0.5414	0.6655
1.772	2	133.31	0.84	94.29	0.0012	3828	175	19.78	449.2		1.772	2	133.3	10.264	0.0012	1529.657	1.8663	167.6508	89.83	2854.82	0.5126	0.671
1.782	2	134.31	0.94	94.1	0.0031	3758	173	19.78	446.8		1.782	2	134.3	10.274	0.0031	1535.495	1.8894	165.2702	87.4743	2901.099	0.4992	0.6751
1.792	2	135.31	1.04	94.54	0.0027	3942	169	19.78	444.4		1.792	2	135.3	10.284	0.0027	1526.949	1.8235	160.9968	88.2878	2784.46	0.5374	0.6789
1.802	2	136.31	1.58	94.91	0.0025	3935	166	19.78	442.9		1.802	2	136.3	10.338	0.0025	1526.58	1.8164	155.7707	85.7595	2772.828	0.5416	0.6815
1.812	2	137.31	1.65	94.72	0.0014	3802	163	19.79	443.4		1.812	2	137.3	10.345	0.0014	1531.912	1.8608	152.6577	82.0389	2850.577	0.5158	0.6808
1.822	2	138.31	1.35	93.52	0.0012	3922	163	19.79	439.8		1.822	2	138.3	10.315	0.0012	1555.103	1.8248	153.94	84.36	2837.749	0.5367	0.6868
1.832	2	139.31	1.81	95.23	0.0038	4092	165	19.78	435.4		1.832	2	139.3	10.361	0.0038	1522.781	1.7612	153.8447	87.3543	2681.856	0.5736	0.6944
1.842	2	140.31	3.28	96.03	0.0006	3870	168	19.79	426.6		1.842	2	140.3	10.508	0.0006	1526.438	1.8087	150.4227	83.1669	2760.845	0.546	0.7104
1.852	2	141.31	3.61	95.93	0.0005	3859	169	19.79	417.4		1.852	2	141.3	10.541	0.0005	1533.459	1.8067	149.9616	83.0015	2770.552	0.5471	0.7276
1.862	2	142.31	3.75	93.8	0.0004	3479	167	19.78	401.8		1.862	2	142.3	10.555	0.0004	1584.597	1.9421	147.6234	76.0124	3077.441	0.4686	0.7589
1.872	2	143.31	3.53	999	0	3765	163	19.78	380.9		1.872	2	143.3	10.533	0	108.3854	1.8404	144.9532	78.7598	199.4774	0.5276	0.8049
1.882	2	144.31	3.33	999	0	3899	159	19.78	347.4		1.882	2	144.3	10.513	0	108.1796	1.7981	142.1699	79.0674	194.516	0.5522	0.8911
1.892	2	145.31	3.37	999	0	4032	160	19.79	304		1.892	2	145.3	10.517	0	108.2207	1.754	142.9078	81.476	189.8176	0.5777	1.0324
1.902	2	146.31	3.23	999	0	4021	162	19.79	257.2		1.902	2	146.3	10.503	0	108.0767	1.7598	145.2488	82.5351	190.1981	0.5743	1.2413
1.912	2	147.31	5.29	95.01	0.0003	3770	163	19.79	222.5		1.912	2	147.3	10.709	0.0003	1579.033	1.8085	138.2271	76.4328	2855.647	0.5461	1.457
1.922	2	148.31	6.43	999	0	5801	162	19.8	208.4		1.922	2	148.3	10.823	0	111.3695	1.2762	133.2807	104.4344	142.1313	0.8549	1.5657
1.932	3	0.43	6.49	999	0	6190	159	19.79	215.6		1.932	3	0.4	10.829	0	111.4312	1.204	130.6055	108.4743	134.1657	0.8967	1.5087
1.942	3	1.43	6.95	999	0	3474	153	19.79	242.6		1.942	3	1.4	10.875	0	111.9046	1.8868	124.1647	65.8055	211.1465	0.5007	1.3243
1.952	3	2.43	6.81	999	0	3877	148	19.79	286.5		1.952	3	2.4	10.861	0	111.7605	1.7476	120.5496	68.9795	195.3143	0.5814	1.1023
1.962	3	3.43	6.35	98.44	0.0002	3995	145	19.79	334.5		1.962	3	3.4	10.815	0.0002	1517.895	1.7172	119.5468	69.617	2606.54	0.5991	0.9292
1.972	3	4.43	5.73	999	0	3831	148	19.79	377.9		1.972	3	4.4	10.753	0	110.6492	1.7804	124.0426	69.6698	197.0039	0.5624	0.8121
1.982	3	5.43	1.64	94.2	0.0032	3878	153	19.78	404.8		1.982	3	5.4	10.344	0.0032	1543.65	1.8346	143.3321	78.1263	2832.011	0.531	0.7527
1.992	3	6.43	0.6	93.65	0.0026	3703	159	19.78	422.3		1.992	3	6.4	10.24	0.0026	1540.776	1.9157	153.3545	80.0522	2951.638	0.4839	0.7183
2.002	3	7.43	0.47	92.41	0.0075	3678	163	19.79	432.4		2.002	3	7.4	10.227	0.0075	1568.077	1.9274	157.7895	81.8673	3022.282	0.4772	0.6998
2.012	3	8.43	0.47	92.47	0.0053	3711	164	19.79	437.3		2.012	3	8.4	10.227	0.0053	1566.636	1.9152	158.7576	82.8947	3000.377	0.4842	0.6912
2.022	3	9.43	0.42	92.47	0.0208	3427	160	19.79	437.5		2.022	3	9.4	10.222	0.0208	1565.87	2.0265	155.1041	76.5372	3173.266	0.4197	0.6908
2.032	3	10.43	0.43	93.2	0.0104	3842	152	19.79	439		2.032	3	10.4	10.223	0.0104	1548.705	1.8689	147.3073	78.8213	2894.338	0.5111	0.6883
2.042	3	11.43	0.47	93.71	0.0707	3982	144	19.79	442.3		2.042	3	11.4	10.227	0.0707	1537.432	1.8203	139.3969	76.5805	2798.537	0.5393	0.6826
2.052	3	12.43	0.53	94.21	0.0301	3978	140	19.78	449.3		2.052	3	12.4	10.233	0.0301	1526.858	1.8205	135.2957	74.3165	2779.697	0.5391	0.6708
2.062	3	13.43	0.57	93.75	0.0261	3694	135	19.79	456.3		2.062	3	13.4	10.237	0.0261	1538.011	1.9196	130.3167	67.8887	2952.312	0.4817	0.6595
2.072	3	14.43	0.64	93.22	0.0083	3805	133	19.79	455.6		2.072	3	14.4	10.244	0.0083	1551.416	1.8781	128.1333	68.2257	2913.682	0.5058	0.6605
2.082	3	15.43	0.74	94.12	0.0297	4223	132	19.79	456.4		2.082	3	15.4	10.254	0.0297	1532.048	1.7384	126.8125	72.9475	2663.326	0.5868	0.6593
2.092	3	16.43	0.8	95.12	0.0541	4398	137	19.79	455.8		2.092	3	16.4	10.26	0.0541	1510.378	1.6851	131.3942	77.9744	2545.129	0.6177	0.6603
2.102	3	17.43	0.95	94.69	0.0169	3645	145	19.79	459.8		2.102	3	17.4	10.275	0.0169	1522.222	1.9307	138.4824	71.7272	2938.926	0.4752	0.654
2.112	3	18.43	1.07	92.73	0.0252	3896	156	19.8	465.4		2.112	3	18.4	10.287	0.0252	1569.576	1.8386	148.4876	80.7607	2885.841	0.5286	0.6452
2.122	3	19.43	1.17	93.78	0.0317	3722	166	19.79	467.8		2.122	3	19.4	10.297	0.0317	1546.328	1.8981	157.5642	83.0097	2935.152	0.4941	0.6417
2.132	3	20.43	1.2	92.95	0.0166	3854	176	19.78	467.1		2.132	3	20.4	10.3	0.0166	1566.302	1.8507	166.9158	90.1888	2898.814	0.5216	0.6427
2.142	3	21.43	1.22	94.06	0.0144	3520	182	19.79	466.3		2.142	3	21.4	10.302	0.0144	1540.601	1.9736	172.5096	87.4108	3040.453	0.4504	0.6439
2.152	3	22.43	1.24	94.4	0.0081	4252	185	19.79	468		2.152	3	22.4	10.304	0.0081	1533.105	1.7211	175.2551	101.8248	2638.695	0.5968	0.6414
2.162	3	23.43	1.25	94.95	0.0227	3893	190	19.79	473.6		2.162	3	23.4	10.305	0.0227	1520.809	1.8364	179.9414	97.9846	2792.851	0.5299	0.633
2.172	3	24.43	1.25	92.95	0.011	3556	195	19.8	479.7		2.172	3	24.4	10.305	0.011	1567.062	1.9589	184.6767	94.274	3069.773	0.4589	0.624
2.182	3	25.43	1.3	92.14	0.0099	3596	197	19.79	483.9		2.182	3	25.4	10.31	0.0099	1587.375	1.9426	186.3103	95.9065	3083.672	0.4683	0.6182
2.192	3	26.43	1.3	92.43	0.0088	3584	196	19.79	484.4		2.192	3	26.4	10.31	0.0088	1580.319	1.9472	185.3645	95.1951	3077.208	0.4657	0.6175
2.202	3	27.43	1.28	93.14	0.0067	3704	191	19.8	483.8		2.202	3	27.4	10.308	0.0067	1563.002	1.9027	180.7368	94.9907	2973.892	0.4915	0.6183
2.212	3	28.43	1.31	93.34	0.0088	3613	184	19.8	484.3		2.212	3	28.4	10.311	0.0088	1558.73	1.936	173.9671	89.86	3017.669	0.4722	0.6175
2.222	3	29.43	1.31	93.27	0.0034	3627	171	19.79	482.3		2.222	3	29.4	10.311	0.0034	1560.381	1.9307	161.6759	83.7398	3012.619	0.4752	0.6204
2.232	3	30.43	1.35	93.84	0.0089	3803	156	19.8	478.9		2.232	3	30.4	10.315	0.0089	1547.637	1.8659	147.3291	78.9606	2887.669	0.5128	0.6252
2.242	3	31.43	1.31	94.85	0.0099	3894	142	19.79	471.9		2.242	3	31.4	10.311	0.0099	1523.943	1.835	134.2572	73.1641	2796.459	0.5307	0.6355
2.252	3	32.43	1.29	94.85	0.0081	3850	133	19.8	465.4		2.252	3	32.4	10.309	0.0081	1523.648	1.8505	125.8182	67.9912	2819.523	0.5217	0.6452
2.262	3	33.43	1.25	94.61	0.0078	3888	128	19.8	463.8		2.262	3	33.4	10.305	0.0078	1528.478	1.8381	121.2237	65.9493	2809.549	0.5289	0.6477
2.272	3	34.43	1.2	94.46	0.0077	3771	126	19.79	463.9		2.272	3	34.4	10.3	0.0077	1531.143	1.8799	119.4965	63.5642	2878.448	0.5047	0.6476
2.282	3	35.43	1.2	94.24	0.0075	3862	126	19.8	460.5		2.282	3	35.4	10.3	0.0075	1536.167	1.848	119.4965	64.6637	2838.791	0.5232	0.6529
2.292	3	36.43	1.15	94.33	0.0081	3850	127	19.8	457.7		2.292	3	36.4	10.295	0.0081	1533.363	1.853	120.6136	65.0901	2841.36	0.5203	0.6573
2.302	3	37.43	1.09	94.38	0.008	3856	129	19.79	454		2.302	3	37.4	10.289	0.008	1531.329	1.852	122.719	66.2621	2836.057	0.5209	0.6632
2.312	3	38.43	1.05	94.11	0.0075	3795	131	19.8	449.9		2.312	3	38.4	10.285	0.0075	1536.91	1.8741	124.7614	66.5703	2880.37	0.508	0.6698
2.322	3	39.43	0.99	93.98	0.0074	3757	133	19.81	443.2		2.322	3	39.4	10.279	0.0074	1539.003	1.8888	126.8794	67.1747	2906.864	0.4995	0.681
2.332	3	40.43	0.95	94.15	0.0082	3799	134	19.79	440.3		2.332	3	40.4	10.275	0.0082	1534.498	1.8745	127.9769	68.2712	2876.473	0.5078	0.686
2.342	3	41.43	0.93	94.27	0.0099	3843	137	19.8	436.9		2.342	3	41.4	10.273	0.0099	1531.455	1.8594	130.9155	70.4062	2847.636	0.5166	0.6919
2.352	3	42.43	0.9	94.28	0.0085	3828	137	19.8	435.8		2.352	3	42.4	10.27	0.0085	1530.78	1.8652	131.0257	70.2467	2855.245	0.5132	0.6938
2.362	3	43.43	0.85	94.2	0.0091	3756	138	19.8	436.7		2.362	3	43.4	10.265	0.0091	1531.861	1.8917	132.1675	69.8658	2897.873	0.4978	0.6922
2.372	3	44.43	0.85	94.06	0.0087	3814	140	19.8	435.7		2.372	3	44.4	10.265	0.0087	1535.068	1.8711	134.083	71.6616	2872.2	0.5098	0.694
2.382	3	45.43	0.79	94.04	0.0097	3778	141	19.81	436.5		2.382	3	45.4	10.259	0.0097	1534.63	1.8849	135.2686	71.7628	2892.687	0.5018	0.6925
2.392	3	46.43	0.78	94.06	0.011	3770	141	19.8	436.1		2.392	3	46.4	10.258	0.011	1534.021	1.888	135.3066	71.667	2896.217	0.5	0.6933
2.402	3	47.43	0.75	94.05	0.0102	3771	142	19.81	435.3		2.402	3	47.4	10.255	0.0102	1533.802	1.8882	136.3812	72.2288	2896.1	0.4999	0.6947
2.412	3	48.43	0.75	94.04	0.006	3748	144	19.81	434.5		2.412	3	48.4	10.255	0.006	1534.031	1.8965	138.302	72.9261	2909.24	0.4951	0.6961
2.422	3	49.43	0.9	94.01	0.0064	3802	145	19.81	430.7		2.422	3	49.4	10.27	0.0064	1536.965	1.8744	138.6769	73.9852	2880.866	0.5079	0.7029
2.432	3	50.43	0.9	94.01	0.0115	3832	147	19.81	431.8		2.432	3	50.4	10.27	0.0115	1536.965	1.8638	140.5896	75.4309	2864.627	0.514	0.7009
2.442	3	51.43	0.94	93.74	0.0099	3709	147	19.81	431.9		2.442	3	51.4	10.274	0.0099	1543.802	1.9071	140.4319	73.6347	2944.25	0.4889	0.7007
2.452	3	52.43	0.99	93.81	0.008	3698	148	19.81	431.2		2.452	3	52.4	10.279	0.008	1542.93	1.9103	141.1891	73.9113	2947.383	0.4871	0.702
2.462	3	53.43	1.09	94.01	0.0077	3745	150	19.81	432.4		2.462	3	53.4	10.289	0.0077	1539.808	1.8913	142.6965	75.4496	2912.213	0.4981	0.6997
2.472	3	54.43	1.2	93.87	0.0076	3679	151	19.81	433.5		2.472	3	54.4	10.3	0.0076	1544.691	1.9134	143.2062	74.8457	2955.536	0.4853	0.6979
2.482	3	55.43	1.31	93.75	0.0079	3773	152	19.82	433.3		2.482	3	55.4	10.311	0.0079	1549.129	1.8772	143.7119	76.5559	2908.048	0.5063	0.6982
2.492	3	56.43	1.48	93.61	0.0099	3707	152	19.82	433		2.492	3	56.4	10.328	0.0099	1554.953	1.8979	143.0315	75.363	2951.146	0.4943	0.6987
2.502	3	57.43	1.65	93.53	0.0083	3622	151	19.81	432.7		2.502	3	57.4	10.345	0.0083	1559.391	1.9262	141.4191	73.4177	3003.741	0.4778	0.6993
2.512	3	58.43	1.75	93.63	0.0051	3658	151	19.81	431.8		2.512	3	58.4	10.355	0.0051	1558.549	1.9109	141.0262	73.7995	2978.29	0.4867	0.701
2.522	3	59.43	1.8	93.62	0.0075	3742	150	19.81	427.7		2.522	3	59.4	10.36	0.0075	1559.536	1.8794	139.8977	74.4376	2930.988	0.505	0.7083
2.532	3	60.43	1.77	93.77	0.0091	3788	148	19.82	427.8		2.532	3	60.4	10.357	0.0091	1555.572	1.8636	138.1476	74.1306	2898.917	0.5142	0.7082
2.542	3	61.43	1.74	94.02	0.0079	3756	146	19.82	426.3		2.542	3	61.4	10.354	0.0079	1549.304	1.8755	136.3944	72.7253	2905.678	0.5073	0.711
2.552	3	62.43	1.75	94.03	0.0071	3732	146	19.81	423.2		2.552	3	62.4	10.355	0.0071	1549.222	1.8839	136.3565	72.3799	2918.581	0.5024	0.7166
2.562	3	63.43	1.64	93.98	0.0069	3721	148	19.81	422.4		2.562	3	63.4	10.344	0.0069	1548.735	1.8899	138.648	73.3634	2926.924	0.4989	0.7182
2.572	3	64.43	1.7	93.92	0.0079	3748	147	19.82	419.7		2.572	3	64.4	10.35	0.0079	1551.026	1.8791	137.4815	73.165	2914.472	0.5052	0.7232
2.582	3	65.43	1.68	93.78	0.0074	3672	148	19.82	417.6		2.582	3	65.4	10.348	0.0074	1553.987	1.9071	138.4938	72.6218	2963.537	0.4889	0.7273
2.592	3	66.43	1.65	93.7	0.0078	3724	148	19.81	416.5		2.592	3	66.4	10.345	0.0078	1555.405	1.8886	138.6094	73.3922	2937.557	0.4996	0.7293
2.602	3	67.43	1.65	93.66	0.0069	3674	148	19.81	414.3		2.602	3	67.4	10.345	0.0069	1556.341	1.9069	138.6094	72.6895	2967.74	0.4891	0.7337
2.612	3	68.43	1.54	93.65	0.0086	3739	148	19.82	412.1		2.612	3	68.4	10.334	0.0086	1554.92	1.8852	139.0348	73.7505	2931.344	0.5016	0.7379
2.622	3	69.43	1.58	93.74	0.0082	3722	149	19.82	409.4		2.622	3	69.4	10.338	0.0082	1553.419	1.8906	139.8183	73.9539	2936.917	0.4985	0.7433
2.632	3	70.43	1.44	93.87	0.0069	3752	150	19.81	411		2.632	3	70.4	10.324	0.0069	1548.29	1.8824	141.3071	75.0693	2914.434	0.5033	0.7401
2.642	3	71.43	1.45	93.76	0.0108	3819	152	19.82	408.9		2.642	3	71.4	10.325	0.0108	1550.999	1.8584	143.1513	77.028	2882.427	0.5172	0.7443
2.652	3	72.43	1.44	93.3	0.0105	3649	153	19.83	410.4		2.652	3	72.4	10.324	0.0105	1561.64	1.92	144.1333	75.0684	2998.388	0.4814	0.7413
2.662	3	73.43	1.37	92.63	0.0194	3625	152	19.81	411.8		2.662	3	73.4	10.317	0.0194	1576.559	1.9303	143.4713	74.325	3043.27	0.4755	0.7386
2.672	3	74.43	1.34	92.62	0.0192	3568	150	19.81	414.8		2.672	3	74.4	10.314	0.0192	1576.341	1.9526	141.7021	72.5712	3077.954	0.4625	0.7328
2.682	3	75.43	1.33	92.64	0.0177	3651	147	19.82	418.2		2.682	3	75.4	10.313	0.0177	1575.707	1.9213	138.9069	72.2974	3027.448	0.4807	0.7261
2.692	3	76.43	1.28	93.07	0.0172	3726	144	19.82	421.9		2.692	3	76.4	10.308	0.0172	1564.663	1.8947	136.2623	71.919	2964.512	0.4961	0.7191
2.702	3	77.43	1.28	93.61	0.0153	3724	142	19.82	424.4		2.702	3	77.4	10.308	0.0153	1551.942	1.8954	134.3698	70.8929	2941.537	0.4957	0.7143
2.712	3	78.43	1.23	93.68	0.0116	3759	141	19.82	427		2.712	3	78.4	10.303	0.0116	1549.556	1.8837	133.6102	70.9304	2918.868	0.5025	0.7097
2.722	3	79.43	1.13	93.65	0.0132	3706	140	19.82	428.3		2.722	3	79.4	10.293	0.0132	1548.751	1.9047	133.0343	69.8446	2949.936	0.4903	0.7072
2.732	3	80.43	1.09	93.68	0.0115	3711	140	19.82	429.9		2.732	3	80.4	10.289	0.0115	1547.451	1.9036	133.1834	69.9628	2945.775	0.4909	0.7042
2.742	3	81.43	0.99	93.64	0.0107	3663	139	19.82	429.4		2.742	3	81.4	10.279	0.0107	1546.877	1.9232	132.6032	68.9492	2974.958	0.4796	0.7053
2.752	3	82.43	0.9	93.61	0.0097	3717	140	19.82	429.1		2.752	3	82.4	10.27	0.0097	1546.221	1.905	133.8949	70.2876	2945.486	0.4902	0.7057
2.762	3	83.43	0.84	93.67	0.0101	3734	140	19.81	429.1		2.762	3	83.4	10.264	0.0101	1543.923	1.8999	134.1207	70.5944	2933.264	0.4931	0.7057
2.772	3	84.43	0.76	93.61	0.0081	3702	140	19.82	428.4		2.772	3	84.4	10.256	0.0081	1544.113	1.9131	134.4225	70.2657	2953.984	0.4855	0.707
2.782	3	85.43	0.72	93.47	0.0081	3691	140	19.82	429.3		2.782	3	85.4	10.252	0.0081	1546.771	1.9179	134.5738	70.1686	2966.498	0.4827	0.7054
2.792	3	86.43	0.67	93.36	0.0078	3683	140	19.82	429.5		2.792	3	86.4	10.247	0.0078	1548.587	1.9218	134.7633	70.1248	2976.017	0.4804	0.7051
2.802	3	87.43	0.65	93.27	0.0062	3668	140	19.82	429.4		2.802	3	87.4	10.245	0.0062	1550.394	1.9277	134.8391	69.9476	2988.721	0.477	0.7052
2.812	3	88.43	0.63	93.35	0.0068	3730	139	19.82	428.7		2.812	3	88.4	10.243	0.0068	1548.217	1.9052	133.9514	70.3072	2949.707	0.49	0.7065
2.822	3	89.43	0.61	93.44	0.0062	3723	139	19.82	431.3		2.822	3	89.4	10.241	0.0062	1545.811	1.9082	134.0268	70.2389	2949.65	0.4883	0.7018
2.832	3	90.43	0.62	93.53	0.005	3741	139	19.82	430.4		2.832	3	90.4	10.242	0.005	1543.865	1.9014	133.9892	70.4682	2935.525	0.4922	0.7035
2.842	3	91.43	0.64	93.49	0.0042	3646	138	19.82	431.6		2.842	3	91.4	10.244	0.0042	1545.098	1.9361	132.9503	68.6674	2991.538	0.4721	0.7013
2.852	3	92.43	0.64	93.46	0.0031	3707	137	19.83	430.1		2.852	3	92.4	10.244	0.0031	1545.797	1.9135	131.9869	68.978	2957.826	0.4852	0.704
2.862	3	93.43	0.64	93.59	0.0032	3674	137	19.82	433		2.862	3	93.4	10.244	0.0032	1542.771	1.9257	131.9869	68.5408	2970.868	0.4781	0.6988
2.872	3	94.43	0.74	93.41	0.0034	3715	136	19.83	433		2.872	3	94.4	10.254	0.0034	1548.475	1.9087	130.6553	68.4539	2955.516	0.488	0.6987
2.882	3	95.43	0.79	93.36	0.0032	3732	135	19.83	433.8		2.882	3	95.4	10.259	0.0032	1550.401	1.9015	129.5125	68.1096	2948.133	0.4922	0.6974
2.892	3	96.43	0.81	93.42	0.003	3680	133	19.82	437.7		2.892	3	96.4	10.261	0.003	1549.298	1.9203	127.5221	66.409	2975.043	0.4813	0.6905
2.902	3	97.43	0.84	93.35	0.0028	3637	133	19.82	439.6		2.902	3	97.4	10.264	0.0028	1551.391	1.9358	127.4146	65.8215	3003.12	0.4723	0.6871
2.912	3	98.43	0.84	93.32	0.0025	3666	132	19.83	440.5		2.912	3	98.4	10.264	0.0025	1552.094	1.9249	126.4566	65.6954	2987.618	0.4786	0.6856
2.922	3	99.43	0.85	93.42	0.004	3699	131	19.82	441.8		2.922	3	99.4	10.265	0.004	1549.902	1.9125	125.4634	65.6022	2964.168	0.4858	0.6834
2.932	3	100.43	0.89	93.62	0.0046	3719	134	19.83	442.2		2.932	3	100.4	10.269	0.0046	1545.838	1.9044	128.1925	67.3134	2943.914	0.4905	0.6827
2.942	3	101.43	0.95	93.63	0.0043	3736	129	19.83	441.1		2.942	3	101.4	10.275	0.0043	1546.508	1.8971	123.2016	64.9415	2933.908	0.4947	0.6847
2.952	3	102.43	0.79	93.47	0.0068	3736	129	19.83	441.1		2.952	3	102.4	10.259	0.0068	1547.827	1.9001	123.7564	65.1323	2940.99	0.493	0.6845
2.962	3	103.43	0.99	93.65	0.0048	3679	129	19.83	440.7		2.962	3	103.4	10.279	0.0048	1546.645	1.9173	123.0634	64.1871	2965.32	0.483	0.6852
2.972	3	104.43	0.96	93.49	0.0045	3684	128	19.82	440.9		2.972	3	104.4	10.276	0.0045	1549.925	1.916	122.2122	63.7861	2969.609	0.4838	0.6849
2.982	3	105.43	0.94	93.41	0.0054	3704	127	19.84	441.1		2.982	3	105.4	10.274	0.0054	1551.495	1.909	121.3255	63.5553	2961.766	0.4878	0.6846
2.992	3	106.43	0.95	93.24	0.0062	3774	127	19.83	441		2.992	3	106.4	10.275	0.0062	1555.64	1.8834	121.2915	64.3991	2929.946	0.5026	0.6849
3.002	3	107.43	0.9	93.13	0.0063	3675	126	19.83	440.1		3.002	3	107.4	10.27	0.0063	1557.476	1.9204	120.5054	62.7494	2991.015	0.4812	0.6864
3.012	3	108.43	0.89	93.18	0.0071	3795	125	19.83	438.9		3.012	3	108.4	10.269	0.0071	1556.145	1.8771	119.5826	63.7077	2920.964	0.5064	0.6884
3.022	3	109.43	0.92	93.39	0.0075	3694	124	19.83	438.3		3.022	3	109.4	10.272	0.0075	1551.662	1.913	118.5261	61.9574	2968.367	0.4855	0.6894
3.032	3	110.43	0.89	93.4	0.0099	3809	123	19.84	440		3.032	3	110.4	10.269	0.0099	1550.974	1.8721	117.6693	62.8544	2903.568	0.5092	0.6865
3.042	3	111.43	0.79	93.56	0.0121	3818	122	19.83	443.4		3.042	3	111.4	10.259	0.0121	1545.729	1.8707	117.0409	62.5639	2891.657	0.51	0.6806
3.052	3	112.43	0.78	93.71	0.0105	3822	121	19.85	445.9		3.052	3	112.4	10.258	0.0105	1542.093	1.8695	116.1142	62.1093	2882.964	0.5107	0.6765
3.062	3	113.43	0.79	93.8	0.014	3805	120	19.84	449.7		3.062	3	113.4	10.259	0.014	1540.159	1.8753	115.1222	61.3876	2888.312	0.5073	0.6702
3.072	3	114.43	0.79	93.72	0.0089	3807	121	19.83	450.3		3.072	3	114.4	10.259	0.0089	1542.011	1.8746	116.0815	61.9225	2890.693	0.5078	0.6692
3.082	3	115.43	0.79	93.61	0.0081	3780	121	19.84	452.2		3.082	3	115.4	10.259	0.0081	1544.565	1.8842	116.0815	61.607	2910.31	0.5022	0.6661
3.092	3	116.43	0.75	93.44	0.0077	3734	121	19.84	452.1		3.092	3	116.4	10.255	0.0077	1547.925	1.9015	116.2121	61.1146	2943.447	0.4921	0.6663
3.102	3	117.43	0.74	93.46	0.0069	3778	121	19.84	450.3		3.102	3	117.4	10.254	0.0069	1547.307	1.8859	116.2448	61.6402	2918.004	0.5012	0.6692
3.112	3	118.43	0.74	93.6	0.0066	3745	120	19.84	448.7		3.112	3	118.4	10.254	0.0066	1544.045	1.8977	115.2841	60.7482	2930.193	0.4944	0.6718
3.122	3	119.43	0.74	93.75	0.0069	3748	119	19.84	447.5		3.122	3	119.4	10.254	0.0069	1540.565	1.8967	114.3234	60.2764	2921.916	0.495	0.6738
3.132	3	120.43	0.74	93.79	0.0055	3772	119	19.84	447.6		3.132	3	120.4	10.254	0.0055	1539.64	1.888	114.3234	60.5524	2906.854	0.5	0.6736
3.142	3	121.43	0.74	93.92	0.0048	3800	116	19.85	448.6		3.142	3	121.4	10.254	0.0048	1536.64	1.878	111.4413	59.3398	2885.842	0.5058	0.6719
3.152	3	122.43	0.74	94.05	0.0049	3822	115	19.84	449.5		3.152	3	122.4	10.254	0.0049	1533.652	1.8702	110.4806	59.0729	2868.303	0.5103	0.6706
3.162	3	123.43	0.74	94.15	0.004	3832	114	19.85	451.3		3.162	3	123.4	10.254	0.004	1531.362	1.8667	109.5199	58.6694	2858.638	0.5123	0.6675
3.172	3	124.43	0.77	94.34	0.0039	3845	112	19.84	452.8		3.172	3	124.4	10.257	0.0039	1527.476	1.8616	107.5078	57.7492	2843.601	0.5153	0.6651
3.182	3	125.43	0.85	94.32	0.0042	3853	112	19.84	454.8		3.182	3	125.4	10.265	0.0042	1529.123	1.8574	107.2664	57.751	2840.187	0.5178	0.6618
3.192	3	126.43	0.89	94.26	0.0033	3850	112	19.84	455.9		3.192	3	126.4	10.269	0.0033	1531.087	1.8577	107.146	57.6762	2844.325	0.5176	0.6602
3.202	3	127.43	0.95	94.21	0.0035	3846	113	19.84	457.4		3.202	3	127.4	10.275	0.0035	1533.124	1.858	107.9208	58.0836	2848.582	0.5174	0.6578
3.212	3	128.43	1.03	94.21	0.003	3828	114	19.85	458.1		3.212	3	128.4	10.283	0.003	1534.318	1.8629	108.6319	58.3144	2858.227	0.5146	0.6567
3.222	3	129.43	1.1	94.14	0.0025	3754	115	19.85	458.1		3.222	3	129.4	10.29	0.0025	1536.968	1.8879	109.37	57.9334	2901.575	0.5001	0.6567
3.232	3	130.43	1.21	94.05	0.0025	3762	116	19.84	453.6		3.232	3	130.4	10.301	0.0025	1540.682	1.883	109.982	58.4088	2901.059	0.5029	0.6638
3.242	3	131.43	1.35	94.02	0.002	3741	116	19.84	428.1		3.242	3	131.4	10.315	0.002	1543.469	1.888	109.5524	58.027	2914.001	0.5	0.7076
3.252	3	132.43	1.42	94.06	0.0029	3828	116	19.85	426.3		3.252	3	132.4	10.322	0.0029	1543.592	1.8558	109.3385	58.9164	2864.639	0.5187	0.711
3.262	3	133.43	1.55	94.15	0.0024	3789	117	19.85	424.9		3.262	3	133.4	10.335	0.0024	1543.459	1.8672	109.882	58.8491	2881.92	0.5121	0.7135
3.272	3	134.43	1.7	94.17	0.0021	3847	116	19.84	423		3.272	3	134.4	10.35	0.0021	1545.237	1.8442	108.4888	58.8266	2849.749	0.5254	0.7171
3.282	3	135.43	1.8	94.17	0.002	3778	116	19.85	421.1		3.282	3	135.4	10.36	0.002	1546.73	1.8666	108.1876	57.9608	2887.072	0.5124	0.7205
3.292	3	136.43	1.79	94.17	0.0016	3798	116	19.85	419.6		3.292	3	136.4	10.359	0.0016	1546.581	1.8597	108.2176	58.1913	2876.158	0.5164	0.7234
3.302	3	137.43	1.85	94.22	0.0016	3760	116	19.86	420		3.302	3	137.4	10.365	0.0016	1546.323	1.8721	108.0374	57.7105	2894.803	0.5092	0.7226
3.312	3	138.43	1.95	94.3	0.0016	3805	116	19.86	419.6		3.312	3	138.4	10.375	0.0016	1545.969	1.8544	107.7379	58.0996	2866.792	0.5195	0.7235
3.322	3	139.43	2	94.34	0.0016	3728	117	19.85	419.2		3.322	3	139.4	10.38	0.0016	1545.793	1.8808	108.5161	57.6967	2907.332	0.5042	0.7242
3.332	3	140.43	2.1	94.51	0.0014	3768	116	19.85	416.5		3.332	3	140.4	10.39	0.0014	1543.375	1.8647	107.2909	57.5375	2877.95	0.5135	0.7293
3.342	3	141.43	2.2	94.33	0.0012	3792	116	19.86	415.5		3.342	3	141.4	10.4	0.0012	1549.002	1.8545	106.9943	57.6957	2872.562	0.5195	0.7312
3.352	3	142.43	3.59	94.86	0.0015	3787	117	19.85	411.6		3.352	3	142.4	10.539	0.0015	1557.411	1.8317	103.8762	56.7092	2852.763	0.5326	0.739
3.362	3	143.43	3.75	95.52	0.0001	3727	116	19.85	405.8		3.362	3	143.4	10.555	0.0001	1544.71	1.85	102.5408	55.4283	2857.672	0.5221	0.7506
3.372	3	144.43	3.71	999	0	3737	116	19.86	393.6		3.372	3	144.4	10.551	0	108.5706	1.8471	102.6524	55.5738	200.5449	0.5237	0.7764
3.382	3	145.43	4.48	96.94	0.0001	3667	117	19.86	371.7		3.382	3	145.4	10.628	0.0001	1523.728	1.8586	101.4	54.557	2832.013	0.517	0.827
3.392	3	146.43	4.56	96.66	0.0001	3705	117	19.86	338.1		3.392	3	146.4	10.636	0.0001	1531.021	1.8436	101.1816	54.8812	2822.664	0.5257	0.9182
3.402	3	147.43	4.24	95.68	0.0002	3669	116	19.86	290.9		3.402	3	147.4	10.604	0.0002	1548.255	1.8621	101.1872	54.3405	2882.997	0.515	1.0837
3.412	3	148.43	4.19	94.73	0.0001	3668	113	19.86	240.3		3.412	3	148.4	10.599	0.0001	1569.292	1.8633	98.7037	52.9716	2924.114	0.5143	1.3384
3.422	3	149.43	4.1	95.02	0.0008	3702	111	19.86	200.3		3.422	3	149.4	10.59	0.0008	1561.256	1.8527	97.1933	52.4596	2892.579	0.5205	1.6361
3.432	3	150.43	6.82	999	0	4553	110	19.86	180.3		3.432	3	150.4	10.862	0	111.7708	1.5501	89.5741	57.786	173.2559	0.696	1.8374
3.442	4	0.33	6.95	999	0	11383	112	19.86	180.5		3.442	4	0.3	10.875	0	111.9046	0.5848	90.8918	155.4205	65.4432	1.2559	1.8355
3.452	4	1.33	6.94	999	0	3925	117	19.85	199.8		3.452	4	1.3	10.874	0	111.8943	1.73	94.9744	54.8976	193.5804	0.5916	1.641
3.462	4	2.33	6.69	999	0	3668	122	19.85	237.4		3.462	4	2.3	10.849	0	111.637	1.8204	99.6862	54.7607	203.2235	0.5392	1.3565
3.472	4	3.33	6.28	999	0	3565	127	19.85	284.3		3.472	4	3.3	10.808	0	111.2151	1.8645	104.9004	56.2635	207.3551	0.5137	1.1117
3.482	4	4.33	5.69	999	0	3667	131	19.85	329.6		3.482	4	4.3	10.749	0	110.608	1.8377	109.9114	59.8097	203.2629	0.5292	0.9443
3.492	4	5.33	1.64	92.59	0.0012	3673	133	19.86	364.8		3.492	4	5.3	10.344	0.0012	1581.651	1.9074	124.5959	65.3216	3016.877	0.4887	0.8442
3.502	4	6.33	0.91	92.23	0.0078	3624	135	19.86	388.9		3.502	4	6.3	10.271	0.0078	1579.182	1.9393	129.0767	66.5568	3062.583	0.4702	0.7868
3.512	4	7.33	0.13	92.23	0.0144	3626	136	19.86	404.6		3.512	4	7.3	10.193	0.0144	1567.189	1.9534	132.9237	68.0465	3061.388	0.4621	0.7532
3.522	4	8.33	0.02	91.8	0.0155	3650	140	19.86	415.7		3.522	4	8.3	10.182	0.0155	1575.917	1.9464	137.2603	70.5192	3067.403	0.4661	0.7308
3.532	4	9.33	-0.05	92.26	0.0312	3657	142	19.86	423.9		3.532	4	9.3	10.175	0.0312	1563.701	1.9451	139.4978	71.7168	3041.585	0.4669	0.7153
3.542	4	10.33	-0.08	92.15	0.0251	3656	144	19.85	429.5		3.542	4	10.3	10.172	0.0251	1565.887	1.9461	141.583	72.7533	3047.327	0.4663	0.7051
3.552	4	11.33	-0.04	92.14	0.023	3608	146	19.86	431.5		3.552	4	11.3	10.176	0.023	1566.744	1.9636	143.3866	73.023	3076.43	0.4562	0.7015
3.562	4	12.33	-0.04	91.92	0.0186	3593	145	19.86	432.8		3.562	4	12.3	10.176	0.0186	1572.069	1.9694	142.4045	72.3099	3095.974	0.4528	0.699
3.572	4	13.33	0.02	92.39	0.0311	3689	144	19.86	435.6		3.572	4	13.3	10.182	0.0311	1561.656	1.9318	141.182	73.0833	3016.799	0.4746	0.6942
3.582	4	14.33	0.1	92.87	0.0308	3757	141	19.86	438		3.582	4	14.3	10.19	0.0308	1551.462	1.9053	137.9277	72.3918	2955.991	0.49	0.69
3.592	4	15.33	0.16	92.85	0.0255	3751	137	19.86	440.4		3.592	4	15.3	10.196	0.0255	1552.848	1.9064	133.7874	70.1798	2960.273	0.4894	0.6858
3.602	4	16.33	0.31	92.69	0.0199	3660	134	19.86	442.3		3.602	4	16.3	10.211	0.0199	1558.931	1.9371	130.3038	67.2662	3019.861	0.4715	0.6826
3.612	4	17.33	0.42	92.75	0.0243	3786	131	19.86	444		3.612	4	17.3	10.222	0.0243	1559.182	1.8889	126.9915	67.2305	2945.135	0.4995	0.6797
3.622	4	18.33	0.46	92.94	0.0259	3770	128	19.85	445.1		3.622	4	18.3	10.226	0.0259	1555.285	1.8939	123.9433	65.4435	2945.552	0.4966	0.6778
3.632	4	19.33	0.57	92.96	0.0216	3778	126	19.86	447.5		3.632	4	19.3	10.237	0.0216	1556.485	1.889	121.629	64.3883	2940.187	0.4994	0.6738
3.642	4	20.33	0.66	93.13	0.0224	3762	124	19.86	449.7		3.642	4	20.3	10.246	0.0224	1553.837	1.8931	119.3953	63.0694	2941.535	0.4971	0.6701
3.652	4	21.33	0.69	93.25	0.0186	3785	124	19.86	453.5		3.652	4	21.3	10.249	0.0186	1551.468	1.8843	119.2946	63.3105	2923.397	0.5022	0.664
3.662	4	22.33	0.67	93.37	0.016	3810	122	19.86	454.8		3.662	4	22.3	10.247	0.016	1548.353	1.8758	117.4366	62.6075	2904.336	0.5071	0.6618
3.672	4	23.33	0.67	93.43	0.0149	3752	122	19.86	457.7		3.672	4	23.3	10.247	0.0149	1546.95	1.8965	117.4366	61.9227	2933.793	0.4951	0.6573
3.682	4	24.33	0.72	93.57	0.0172	3770	120	19.86	457.5		3.682	4	24.3	10.252	0.0172	1544.441	1.8891	115.349	61.0605	2917.596	0.4994	0.6576
3.692	4	25.33	0.69	93.52	0.0166	3757	121	19.86	454.8		3.692	4	25.3	10.249	0.0166	1545.153	1.8943	116.4084	61.4511	2927.024	0.4963	0.6618
3.702	4	26.33	0.67	93.43	0.0154	3757	121	19.87	451.8		3.702	4	26.3	10.247	0.0154	1546.95	1.8947	116.474	61.4737	2931	0.4961	0.6668
3.712	4	27.33	0.73	93.36	0.0128	3762	121	19.86	451.3		3.712	4	27.3	10.253	0.0128	1549.494	1.8918	116.2775	61.4644	2931.31	0.4978	0.6676
3.722	4	28.33	0.69	93.33	0.0121	3702	122	19.87	453.5		3.722	4	28.3	10.249	0.0121	1549.592	1.9144	117.3705	61.3103	2966.489	0.4847	0.664
3.732	4	29.33	0.69	93.28	0.0107	3718	122	19.87	455.7		3.732	4	29.3	10.249	0.0107	1550.764	1.9085	117.3705	61.499	2959.626	0.4881	0.6605
3.742	4	30.33	0.73	93.23	0.0116	3675	122	19.87	454.9		3.742	4	30.3	10.253	0.0116	1552.544	1.9236	117.2385	60.9472	2986.486	0.4793	0.6617
3.752	4	31.33	0.72	93.23	0.0133	3693	122	19.86	448.9		3.752	4	31.3	10.252	0.0133	1552.392	1.9171	117.2715	61.1705	2976.132	0.4831	0.6714
3.762	4	32.33	0.71	93.19	0.0128	3674	122	19.86	446.4		3.762	4	32.3	10.251	0.0128	1553.182	1.9244	117.3045	60.9578	2988.873	0.4789	0.6757
3.772	4	33.33	0.67	93.24	0.0127	3716	122	19.86	443.3		3.772	4	33.3	10.247	0.0127	1551.401	1.9096	117.4366	61.498	2962.555	0.4875	0.6808
3.782	4	34.33	0.66	93.21	0.0164	3709	122	19.86	440.4		3.782	4	34.3	10.246	0.0164	1551.954	1.9124	117.4696	61.4267	2967.886	0.4859	0.6858
3.792	4	35.33	0.57	93.22	0.0149	3739	122	19.87	436.1		3.792	4	35.3	10.237	0.0149	1550.356	1.9031	117.7677	61.8831	2950.434	0.4913	0.6932
3.802	4	36.33	0.57	93.23	0.0121	3672	122	19.87	432.1		3.802	4	36.3	10.237	0.0121	1550.121	1.9277	117.7677	61.0913	2988.218	0.477	0.7004
3.812	4	37.33	0.53	93.28	0.0136	3672	123	19.87	426.9		3.812	4	37.3	10.233	0.0136	1548.343	1.9285	118.8669	61.6375	2985.958	0.4765	0.7098
3.822	4	38.33	0.53	93.34	0.0121	3788	124	19.88	420.8		3.822	4	38.3	10.233	0.0121	1546.939	1.8862	119.8333	63.5332	2917.761	0.5011	0.7211
3.832	4	39.33	0.5	93.39	0.01	3765	124	19.87	415.5		3.832	4	39.3	10.23	0.01	1545.317	1.895	119.9347	63.2915	2928.31	0.496	0.7312
3.842	4	40.33	0.47	93.41	0.0106	3799	126	19.87	411.9		3.842	4	40.3	10.227	0.0106	1544.397	1.8833	121.9723	64.764	2908.617	0.5027	0.7383
3.852	4	41.33	0.47	93.27	0.0088	3733	127	19.87	408.4		3.852	4	41.3	10.227	0.0088	1547.67	1.9071	122.9403	64.464	2951.584	0.4889	0.7453
3.862	4	42.33	0.48	93.23	0.0092	3768	128	19.86	405.1		3.862	4	42.3	10.228	0.0092	1548.758	1.8942	123.8734	65.3945	2933.731	0.4964	0.7521
3.872	4	43.33	0.48	93.23	0.0084	3728	129	19.87	403.2		3.872	4	43.3	10.228	0.0084	1548.758	1.9088	124.8412	65.4046	2956.198	0.488	0.756
3.882	4	44.33	0.48	93.26	0.0083	3715	130	19.87	403.9		3.882	4	44.3	10.228	0.0083	1548.055	1.9135	125.809	65.7476	2962.226	0.4852	0.7544
3.892	4	45.33	0.48	93.29	0.0095	3759	132	19.87	402.7		3.892	4	45.3	10.228	0.0095	1547.352	1.8975	127.7445	67.3228	2936.09	0.4945	0.757
3.902	4	46.33	0.43	93.27	0.0099	3772	133	19.87	400		3.902	4	46.3	10.223	0.0099	1547.064	1.8937	128.8939	68.0634	2929.729	0.4967	0.7627
3.912	4	47.33	0.43	93.23	0.0101	3747	134	19.87	398.8		3.912	4	47.3	10.223	0.0101	1548.001	1.9028	129.8631	68.2496	2945.485	0.4914	0.7652
3.922	4	48.33	0.43	93.16	0.0093	3760	135	19.87	399.4		3.922	4	48.3	10.223	0.0093	1549.644	1.8981	130.8322	68.9294	2941.316	0.4942	0.7639
3.932	4	49.33	0.49	93.13	0.0117	3657	136	19.87	400.4		3.932	4	49.3	10.229	0.0117	1551.259	1.9349	131.5784	68.0044	3001.455	0.4728	0.7618
3.942	4	50.33	0.52	93.01	0.0104	3712	136	19.88	400.8		3.942	4	50.3	10.232	0.0104	1554.543	1.9139	131.4672	68.6919	2975.19	0.485	0.7609
3.952	4	51.33	0.57	93	0.0117	3731	137	19.87	401.8		3.952	4	51.3	10.237	0.0117	1555.539	1.906	132.2474	69.3855	2964.827	0.4896	0.7588
3.962	4	52.33	0.57	93.08	0.0102	3722	138	19.87	401.7		3.962	4	52.3	10.237	0.0102	1553.65	1.9093	133.2127	69.7716	2966.334	0.4877	0.7592
3.972	4	53.33	0.71	93.25	0.012	3749	137	19.87	401.4		3.972	4	53.3	10.251	0.012	1551.771	1.8968	131.7271	69.4454	2943.47	0.4949	0.7597
3.982	4	54.33	0.8	93.23	0.0113	3706	137	19.87	400.8		3.982	4	54.3	10.26	0.0113	1553.604	1.9108	131.3942	68.7623	2968.697	0.4867	0.761
3.992	4	55.33	0.85	93.24	0.0109	3647	138	19.88	398.5		3.992	4	55.3	10.265	0.0109	1554.126	1.9318	132.1675	68.4164	3002.278	0.4746	0.7658
4.002	4	56.33	1.04	93.13	0.01	3677	137	19.88	396		4.002	4	56.3	10.284	0.01	1559.6	1.9171	130.5122	68.0791	2989.859	0.4831	0.7712
4.012	4	57.33	1.2	93.06	0.0091	3690	137	19.87	394.5		4.012	4	57.3	10.3	0.0091	1563.686	1.9093	129.9288	68.0507	2985.538	0.4876	0.7744
4.022	4	58.33	1.25	93.11	0.0101	3668	136	19.88	392.5		4.022	4	58.3	10.305	0.0101	1563.259	1.9165	128.8002	67.2062	2995.975	0.4835	0.7787
4.032	4	59.33	1.26	93.03	0.0083	3716	136	19.88	392.2		4.032	4	59.3	10.306	0.0083	1565.31	1.8987	128.7642	67.8182	2972.004	0.4938	0.7795
4.042	4	60.33	1.29	92.92	0.008	3645	137	19.88	392.5		4.042	4	60.3	10.309	0.008	1568.386	1.9243	129.6022	67.3498	3018.067	0.4789	0.7788
4.052	4	61.33	1.28	92.89	0.007	3653	135	19.87	390.6		4.052	4	61.3	10.308	0.007	1568.95	1.9215	127.7459	66.482	3014.758	0.4806	0.7829
4.062	4	62.33	1.25	93.12	0.0078	3662	136	19.88	391.1		4.062	4	62.3	10.305	0.0078	1563.021	1.9187	128.8002	67.1281	2999.003	0.4822	0.7818
4.072	4	63.33	1.25	93.17	0.0075	3638	135	19.88	392.2		4.072	4	63.3	10.305	0.0075	1561.837	1.9277	127.8531	66.3248	3010.727	0.477	0.7794
4.082	4	64.33	1.19	93.23	0.0065	3684	133	19.89	391.9		4.082	4	64.3	10.299	0.0065	1559.509	1.9117	126.1706	65.9995	2981.3	0.4863	0.7802
4.092	4	65.33	1.19	93.36	0.0066	3708	133	19.89	393.3		4.092	4	65.3	10.299	0.0066	1556.445	1.9029	126.1706	66.3051	2961.727	0.4914	0.777
4.102	4	66.33	1.14	93.57	0.0053	3737	131	19.88	393.3		4.102	4	66.3	10.294	0.0053	1550.768	1.8933	124.4473	65.732	2935.999	0.497	0.777
4.112	4	67.33	1.09	93.62	0.006	3725	131	19.88	392.7		4.112	4	67.3	10.289	0.006	1548.848	1.8985	124.6217	65.6412	2940.531	0.4939	0.7784
4.122	4	68.33	1.09	93.64	0.0055	3795	131	19.89	393.8		4.122	4	68.3	10.289	0.0055	1548.382	1.8734	124.6217	66.5216	2900.743	0.5085	0.776
4.132	4	69.33	0.99	93.68	0.0055	3740	131	19.89	394.9		4.132	4	69.3	10.279	0.0055	1545.947	1.8949	124.9714	65.9504	2929.462	0.496	0.7734
4.142	4	70.33	0.95	93.68	0.0061	3841	132	19.89	395.5		4.142	4	70.3	10.275	0.0061	1545.345	1.8598	126.0667	67.7863	2873.983	0.5164	0.7723
4.152	4	71.33	0.89	93.67	0.009	3795	133	19.89	396.1		4.152	4	71.3	10.269	0.009	1544.675	1.8771	127.2359	67.785	2899.434	0.5064	0.771
4.162	4	72.33	0.83	93.57	0.01	3766	132	19.89	395.8		4.162	4	72.3	10.263	0.01	1546.098	1.8885	126.4922	66.98	2919.815	0.4997	0.7715
4.172	4	73.33	0.81	93.43	0.0104	3772	132	19.89	397.5		4.172	4	73.3	10.261	0.0104	1549.064	1.8867	126.5632	67.0811	2922.652	0.5007	0.7678
4.182	4	74.33	0.76	93.31	0.0134	3737	133	19.89	395.9		4.182	4	74.3	10.256	0.0134	1551.119	1.9003	127.7014	67.2018	2947.544	0.4929	0.7714
4.192	4	75.33	0.69	93.24	0.0153	3745	133	19.9	396.8		4.192	4	75.3	10.249	0.0153	1551.703	1.8987	127.9531	67.3911	2946.163	0.4938	0.7694
4.202	4	76.33	0.69	93.05	0.0197	3800	133	19.9	399.4		4.202	4	76.3	10.249	0.0197	1556.18	1.8789	127.9531	68.0987	2923.964	0.5053	0.7639
4.212	4	77.33	0.69	93.23	0.0198	3794	133	19.89	400.9		4.212	4	77.3	10.249	0.0198	1551.938	1.8811	127.9531	68.0214	2919.304	0.504	0.7607
4.222	4	78.33	0.63	93.23	0.016	3777	133	19.9	403.1		4.222	4	78.3	10.243	0.016	1551.03	1.8882	128.1693	67.8775	2928.722	0.4999	0.7562
4.232	4	79.33	0.6	93.25	0.0145	3757	133	19.9	404.2		4.232	4	79.3	10.24	0.0145	1550.106	1.896	128.2776	67.6573	2938.987	0.4954	0.754
4.242	4	80.33	0.56	93.25	0.013	3724	133	19.9	405.1		4.242	4	80.3	10.236	0.013	1549.5	1.9087	128.4223	67.2818	2957.568	0.488	0.752
4.252	4	81.33	0.51	93.29	0.0099	3776	133	19.9	405.1		4.252	4	81.3	10.231	0.0099	1547.806	1.8908	128.6034	68.0147	2926.619	0.4984	0.7521
4.262	4	82.33	0.46	93.46	0.009	3798	134	19.9	405		4.262	4	82.3	10.226	0.009	1543.081	1.8839	129.7532	68.8757	2906.972	0.5024	0.7523
4.272	4	83.33	0.39	93.59	0.0094	3843	134	19.9	403.5		4.272	4	83.3	10.219	0.0094	1539.006	1.8693	130.0097	69.5515	2876.799	0.5109	0.7554
4.282	4	84.33	0.37	93.44	0.0091	3775	134	19.9	403.2		4.282	4	84.3	10.217	0.0091	1542.189	1.8938	130.0831	68.6901	2920.547	0.4967	0.756
4.292	4	85.33	0.32	93.38	0.0085	3795	134	19.91	402.9		4.292	4	85.3	10.212	0.0085	1542.831	1.8875	130.267	69.0146	2912.137	0.5003	0.7567
4.302	4	86.33	0.29	93.48	0.0088	3771	134	19.9	403		4.302	4	86.3	10.209	0.0088	1540.051	1.8967	130.3775	68.7394	2921.002	0.495	0.7564
4.312	4	87.33	0.27	93.34	0.0085	3781	134	19.91	404.6		4.312	4	87.3	10.207	0.0085	1543.008	1.8935	130.4512	68.8954	2921.635	0.4968	0.7531
4.322	4	88.33	0.22	93.36	0.0077	3706	134	19.9	405.5		4.322	4	88.3	10.202	0.0077	1541.786	1.9217	130.6358	67.9789	2962.865	0.4804	0.7513
4.332	4	89.33	0.21	93.36	0.0083	3755	133	19.9	406.9		4.332	4	89.3	10.201	0.0083	1541.635	1.904	129.6975	68.1197	2935.219	0.4907	0.7483
4.342	4	90.33	0.21	93.39	0.0074	3760	134	19.9	407.6		4.342	4	90.3	10.201	0.0074	1540.937	1.9022	130.6727	68.6973	2931.097	0.4918	0.747
4.352	4	91.33	0.21	93.35	0.0076	3784	135	19.9	407.2		4.352	4	91.3	10.201	0.0076	1541.868	1.8935	131.6479	69.5261	2919.532	0.4968	0.7478
4.362	4	92.33	0.47	93.37	0.006	3743	136	19.91	407.4		4.362	4	92.3	10.227	0.006	1545.331	1.9035	131.6526	69.1644	2941.499	0.491	0.7474
4.372	4	93.33	0.36	93.39	0.005	3672	137	19.9	406.6		4.372	4	93.3	10.216	0.005	1543.202	1.9317	133.033	68.8686	2980.996	0.4747	0.749
4.382	4	94.33	0.36	93.35	0.0045	3731	138	19.9	408.7		4.382	4	94.3	10.216	0.0045	1544.135	1.9099	134.0041	70.1629	2949.143	0.4873	0.7448
4.392	4	95.33	0.37	93.31	0.0041	3703	140	19.9	408.3		4.392	4	95.3	10.217	0.0041	1545.221	1.92	135.9078	70.7855	2966.816	0.4814	0.7455
4.402	4	96.33	0.42	93.31	0.0045	3697	141	19.9	404.9		4.402	4	96.3	10.222	0.0045	1545.977	1.9213	136.6855	71.1432	2970.242	0.4807	0.7525
4.412	4	97.33	0.42	93.31	0.0039	3661	142	19.9	403.1		4.412	4	97.3	10.222	0.0039	1545.977	1.9347	137.6549	71.1514	2990.964	0.4729	0.7561
4.422	4	98.33	0.43	93.53	0.0032	3690	142	19.9	400.4		4.422	4	98.3	10.223	0.0032	1541.001	1.9237	137.6161	71.5381	2964.386	0.4793	0.7617
4.432	4	99.33	0.42	93.46	0.004	3724	142	19.9	400.4		4.432	4	99.3	10.222	0.004	1542.478	1.9113	137.6549	72.0202	2948.196	0.4865	0.7619
4.442	4	100.33	0.5	93.63	0.003	3740	143	19.9	398.9		4.442	4	100.3	10.23	0.003	1539.735	1.904	138.3118	72.6425	2931.667	0.4907	0.7649
4.452	4	101.33	0.47	93.66	0.0032	3751	143	19.9	397.6		4.452	4	101.3	10.227	0.0032	1538.589	1.9006	138.4288	72.8354	2924.199	0.4927	0.7677
4.462	4	102.33	0.52	93.64	0.0024	3710	144	19.9	397.4		4.462	4	102.3	10.232	0.0024	1539.804	1.9146	139.2005	72.7046	2948.114	0.4846	0.7682
4.472	4	103.33	0.52	93.36	0.0021	3633	144	19.89	396		4.472	4	103.3	10.232	0.0021	1546.32	1.9433	139.2005	71.63	3005.006	0.4679	0.7712
4.482	4	104.33	0.53	93.23	0.0023	3661	145	19.91	395.9		4.482	4	104.3	10.233	0.0023	1549.515	1.9326	140.1277	72.5075	2994.588	0.4741	0.7713
4.492	4	105.33	0.57	93.23	0.0026	3619	146	19.9	396.4		4.492	4	105.3	10.237	0.0026	1550.121	1.9477	140.9352	72.3602	3019.154	0.4654	0.7702
4.502	4	106.33	0.54	93.23	0.0029	3660	146	19.9	397.1		4.502	4	106.3	10.234	0.0029	1549.667	1.9328	141.0543	72.98	2995.168	0.474	0.7687
4.512	4	107.33	0.52	93.24	0.0027	3676	145	19.9	397.9		4.512	4	107.3	10.232	0.0027	1549.129	1.9272	140.1672	72.7316	2985.457	0.4773	0.7671
4.522	4	108.33	0.49	93.28	0.0028	3673	146	19.9	398.1		4.522	4	108.3	10.229	0.0028	1547.738	1.9289	141.2533	73.2312	2985.38	0.4763	0.7668
4.532	4	109.33	0.52	93.36	0.003	3686	145	19.91	399.3		4.532	4	109.3	10.232	0.003	1546.32	1.9235	140.1672	72.8722	2974.295	0.4794	0.764
4.542	4	110.33	0.47	93.32	0.0026	3637	145	19.9	397.6		4.542	4	110.3	10.227	0.0026	1546.499	1.9428	140.3649	72.2501	3004.482	0.4682	0.7677
4.552	4	111.33	0.47	93.27	0.0025	3627	143	19.9	399.7		4.552	4	111.3	10.227	0.0025	1547.67	1.9466	138.4288	71.1149	3012.619	0.466	0.7633
4.562	4	112.33	0.28	93.19	0.0026	3618	142	19.91	400.9		4.562	4	112.3	10.208	0.0026	1546.667	1.9536	138.2003	70.7412	3021.573	0.4619	0.7608
4.572	4	113.33	0.26	93.11	0.0021	3676	141	19.91	401.8		4.572	4	113.3	10.206	0.0021	1548.24	1.9321	137.3046	71.0652	2991.344	0.4744	0.7588
4.582	4	114.33	0.25	93.22	0.0028	3684	139	19.91	402.8		4.582	4	114.3	10.205	0.0028	1545.51	1.9293	135.3953	70.1785	2981.752	0.476	0.7567
4.592	4	115.33	0.27	93.32	0.0024	3749	137	19.91	404.1		4.592	4	115.3	10.207	0.0024	1543.475	1.905	133.3717	70.0106	2940.355	0.4901	0.754
4.602	4	116.33	0.31	93.46	0.0023	3753	135	19.91	405.1		4.602	4	116.3	10.211	0.0023	1540.818	1.9028	131.2762	68.9902	2931.907	0.4914	0.7521
4.612	4	117.33	0.27	93.54	0.0021	3725	133	19.91	406.7		4.612	4	117.3	10.207	0.0021	1538.357	1.9138	129.4777	67.6555	2944.077	0.485	0.7487
4.622	4	118.33	0.27	93.45	0.0021	3654	132	19.92	407.3		4.622	4	118.3	10.207	0.0021	1540.447	1.9402	128.5042	66.2341	2988.698	0.4698	0.7475
4.632	4	119.33	0.23	93.5	0.0021	3732	132	19.91	408		4.632	4	119.3	10.203	0.0021	1538.682	1.912	128.6496	67.2865	2941.909	0.4861	0.7462
4.642	4	120.33	0.27	93.51	0.0018	3758	132	19.91	408.3		4.642	4	120.3	10.207	0.0018	1539.053	1.9018	128.5042	67.5712	2926.907	0.492	0.7455
4.652	4	121.33	0.22	93.44	0.0015	3672	131	19.92	408.3		4.652	4	121.3	10.202	0.0015	1539.924	1.9343	127.7111	66.0229	2978.746	0.4731	0.7456
4.662	4	122.33	0.27	93.57	0.0013	3709	132	19.91	408.6		4.662	4	122.3	10.207	0.0013	1537.662	1.9197	128.5042	66.9411	2951.79	0.4816	0.7449
4.672	4	123.33	0.32	93.67	0.0013	3733	132	19.92	410.4		4.672	4	123.3	10.212	0.0013	1536.101	1.9099	128.3227	67.1876	2933.825	0.4873	0.7413
4.682	4	124.33	0.36	93.77	0.0013	3781	133	19.92	411.5		4.682	4	124.3	10.216	0.0013	1534.395	1.8918	129.1489	68.2678	2902.765	0.4978	0.7391
4.692	4	125.33	0.37	93.75	0.0012	3739	133	19.91	413.6		4.692	4	125.3	10.217	0.0012	1535.006	1.9068	129.1124	67.7118	2926.94	0.4891	0.735
4.702	4	126.33	0.42	93.7	0.0011	3727	133	19.92	414.6		4.702	4	126.3	10.222	0.0011	1536.912	1.9102	128.9303	67.4943	2935.87	0.4871	0.733
4.712	4	127.33	0.45	93.71	0.0011	3707	132	19.92	416.7		4.712	4	127.3	10.225	0.0011	1537.132	1.917	127.8526	66.6935	2946.709	0.4832	0.729
4.722	4	128.33	0.47	93.75	0.0011	3744	131	19.92	414.8		4.722	4	128.3	10.227	0.0011	1536.508	1.9031	126.8124	66.6343	2924.147	0.4912	0.7326
4.732	4	129.33	0.57	93.77	0.0009	3767	131	19.92	411.3		4.732	4	129.3	10.237	0.0009	1537.549	1.8929	126.4555	66.8037	2910.491	0.4971	0.7395
4.742	4	130.33	0.67	93.92	0.001	3740	130	19.91	408.9		4.742	4	130.3	10.247	0.001	1535.591	1.9008	125.1373	65.8324	2918.926	0.4925	0.7444
4.752	4	131.33	0.74	94.13	0.0011	3799	130	19.92	396.5		4.752	4	131.3	10.254	0.0011	1531.82	1.8784	124.8911	66.4889	2877.333	0.5056	0.7702
4.762	4	132.33	0.84	94.12	0.0009	3742	131	19.92	393.2		4.762	4	132.3	10.264	0.0009	1533.542	1.897	125.4986	66.1572	2909.092	0.4948	0.7773
4.772	4	133.33	0.95	93.9	0.0008	3703	133	19.92	390		4.772	4	133.3	10.275	0.0008	1540.249	1.9092	127.0218	66.5329	2940.577	0.4877	0.7843
4.782	4	134.33	1.09	93.86	0.0009	3740	135	19.92	388.5		4.782	4	134.3	10.289	0.0009	1543.273	1.8931	128.4269	67.8399	2921.553	0.497	0.7875
4.792	4	135.33	1.19	93.97	0.0007	3720	139	19.92	385.4		4.792	4	135.3	10.299	0.0007	1542.228	1.8985	131.8625	69.4561	2927.923	0.4939	0.7946
4.802	4	136.33	1.26	93.82	0.0007	3755	143	19.91	384.1		4.802	4	136.3	10.306	0.0007	1546.751	1.8846	135.3918	71.8424	2914.955	0.502	0.7975
4.812	4	137.33	1.35	93.8	0.0006	3630	147	19.92	383.4		4.812	4	137.3	10.315	0.0006	1548.566	1.9288	138.8293	71.9764	2986.901	0.4763	0.7992
4.822	4	138.33	1.45	93.72	0.0006	3668	151	19.93	381.1		4.822	4	138.3	10.325	0.0006	1551.931	1.9128	142.2095	74.347	2968.506	0.4856	0.8044
4.832	4	139.33	1.85	93.71	0.0005	3655	155	19.92	380		4.832	4	139.3	10.365	0.0005	1558.178	1.9102	144.3603	75.5732	2976.439	0.4871	0.8072
4.842	4	140.33	1.94	93.53	0.0007	3649	158	19.92	377.4		4.842	4	140.3	10.374	0.0007	1563.762	1.9108	146.7872	76.8209	2987.993	0.4868	0.8133
4.852	4	141.33	2.06	92.61	0.0007	3592	163	19.93	372.2		4.852	4	141.3	10.386	0.0007	1587.588	1.9299	150.9293	78.2049	3063.922	0.4757	0.8257
4.862	4	142.33	2.32	93.23	0.0022	3660	166	19.92	366.9		4.862	4	142.3	10.412	0.0022	1576.62	1.8997	152.6053	80.3296	2995.168	0.4932	0.8388
4.872	4	143.33	3.29	93.07	0.0003	3570	170	19.92	361.5		4.872	4	143.3	10.509	0.0003	1595.173	1.9156	152.1718	79.4379	3055.724	0.484	0.8526
4.882	4	144.33	3.53	94.01	0.0002	3572	172	19.93	353.1		4.882	4	144.3	10.533	0.0002	1576.324	1.9105	152.9567	80.0616	3011.55	0.487	0.8752
4.892	4	145.33	3.61	999	0	3496	174	19.92	338.9		4.892	4	145.3	10.541	0	108.4677	1.9381	154.3984	79.6663	210.2172	0.471	0.9156
4.902	4	146.33	3.46	94.59	0.0001	3527	176	19.93	317.9		4.902	4	146.3	10.526	0.0001	1561.721	1.9289	156.8129	81.2981	3012.346	0.4763	0.9826
4.912	4	147.33	3.3	93.57	0.0002	3515	177	19.93	289.8		4.912	4	147.3	10.51	0.0002	1583.308	1.9364	158.3944	81.7976	3065.948	0.4719	1.0884
4.922	4	148.33	3.2	999	0	3543	176	19.93	254.8		4.922	4	148.3	10.5	0	108.0458	1.9275	157.9308	81.9352	208.2592	0.4771	1.2546
4.932	4	149.33	3.2	116.12	0.0001	3571	173	19.93	217.9		4.932	4	149.3	10.5	0.0001	1180.704	1.9169	155.2388	80.9855	2263.257	0.4833	1.4911
4.942	4	150.33	5.3	999	0	3600	170	19.93	190.3		4.942	4	150.3	10.71	0	110.2067	1.8686	144.1247	77.1296	205.9327	0.5113	1.7311
4.952	4	151.33	6.85	999	0	6696	169	19.93	178.2		4.952	4	151.3	10.865	0	111.8017	1.1155	137.5099	123.2756	124.7112	0.9481	1.861
4.962	5	0.71	6.87	999	0	5494	170	19.93	180.7		4.962	5	0.7	10.867	0	111.8223	1.3318	138.2509	103.8115	148.9193	0.8227	1.8332
4.972	5	1.71	6.88	999	0	3529	171	19.93	202.5		4.972	5	1.7	10.868	0	111.8326	1.8674	139.0276	74.449	208.8386	0.5119	1.6169
4.982	5	2.71	6.42	999	0	3540	171	19.93	239.6		4.982	5	2.7	10.822	0	111.3592	1.8713	140.7223	75.2015	208.3831	0.5097	1.3425
4.992	5	3.71	5.84	999	0	3571	169	19.93	282.5		4.992	5	3.7	10.764	0	110.7624	1.8699	141.2296	75.5296	207.1099	0.5105	1.1196
5.002	5	4.71	4.84	999	0	3670	166	19.93	323.7		5.002	5	4.7	10.664	0	109.7334	1.8513	142.4792	76.9634	203.1449	0.5213	0.9632
5.012	5	5.71	0.99	105.16	0.0002	3666	163	19.93	356.1		5.012	5	5.7	10.279	0.0002	1318.328	1.9221	155.4988	80.9011	2533.938	0.4802	0.867
5.022	5	6.71	0.39	92.53	0.0004	3702	159	19.93	380		5.022	5	6.7	10.219	0.0004	1563.973	1.92	154.2653	80.347	3002.81	0.4814	0.8072
5.032	5	7.71	0.32	92.19	0.0018	3736	154	19.93	392.2		5.032	5	7.7	10.212	0.0018	1571.077	1.9088	149.7098	78.4305	2998.905	0.4879	0.7795
5.042	5	8.71	0.27	92.85	0.0048	3756	152	19.93	400.6		5.042	5	8.7	10.207	0.0048	1554.523	1.9025	147.9745	77.7797	2957.454	0.4916	0.7615
5.052	5	9.71	0.27	92.92	0.0101	3745	149	19.93	406.8		5.052	5	9.7	10.207	0.0101	1552.868	1.9065	145.0539	76.0848	2960.506	0.4893	0.7486
5.062	5	10.71	0.26	92.97	0.0119	3740	147	19.92	407.8		5.062	5	10.7	10.206	0.0119	1551.535	1.9085	143.1474	75.0058	2961.081	0.4881	0.7466
5.072	5	11.71	0.27	92.96	0.0117	3740	147	19.93	409.7		5.072	5	11.7	10.207	0.0117	1551.923	1.9083	143.1069	74.9919	2961.531	0.4882	0.7428
5.082	5	12.71	0.34	93.12	0.0131	3729	147	19.93	410.8		5.082	5	12.7	10.214	0.0131	1549.219	1.911	142.8241	74.7378	2960.563	0.4867	0.7406
5.092	5	13.71	0.38	93.24	0.0105	3709	148	19.93	414.9		5.092	5	13.7	10.218	0.0105	1547.01	1.9176	143.6334	74.9029	2966.538	0.4828	0.7325
5.102	5	14.71	0.42	92.96	0.0075	3695	150	19.93	417.5		5.102	5	14.7	10.222	0.0075	1554.204	1.922	145.4101	75.6551	2987.199	0.4803	0.7274
5.112	5	15.71	0.57	93.01	0.0085	3719	152	19.93	417.5		5.112	5	15.7	10.237	0.0085	1555.302	1.9104	146.727	76.8057	2971.197	0.487	0.7274
5.122	5	16.71	0.67	93.23	0.0082	3740	156	19.93	418.7		5.122	5	16.7	10.247	0.0082	1551.635	1.9008	150.1648	78.9988	2949.423	0.4925	0.7252
5.132	5	17.71	0.74	93.22	0.0091	3691	160	19.93	418		5.132	5	17.7	10.254	0.0091	1552.93	1.9175	153.7122	80.1632	2977.73	0.4829	0.7264
5.142	5	18.71	0.85	92.85	0.007	3646	162	19.93	418		5.142	5	18.7	10.265	0.007	1563.357	1.9322	155.1532	80.2993	3020.698	0.4744	0.7265
5.152	5	19.71	0.85	92.8	0.007	3692	164	19.93	416.5		5.152	5	19.7	10.265	0.007	1564.548	1.9151	157.0687	82.0173	2996.214	0.4843	0.7294
5.162	5	20.71	0.9	93.1	0.0106	3701	165	19.93	415.8		5.162	5	20.7	10.27	0.0106	1558.185	1.9108	157.8047	82.5848	2977.414	0.4868	0.7308
5.172	5	21.71	0.95	93.04	0.007	3723	165	19.93	415.2		5.172	5	21.7	10.275	0.007	1560.364	1.9018	157.5834	82.8583	2967.568	0.492	0.7318
5.182	5	22.71	1	92.97	0.0069	3658	165	19.93	414.9		5.182	5	22.7	10.28	0.0069	1562.785	1.9249	157.3626	81.7519	3008.173	0.4786	0.7324
5.192	5	23.71	0.99	93	0.0075	3644	166	19.93	414.3		5.192	5	23.7	10.279	0.0075	1561.921	1.9303	158.3607	82.0392	3014.984	0.4755	0.7337
5.202	5	24.71	1.01	93.05	0.0087	3615	165	19.93	414.2		5.202	5	24.7	10.281	0.0087	1561.039	1.9409	157.3185	81.0557	3029.772	0.4693	0.7338
5.212	5	25.71	1.05	93.03	0.0069	3562	164	19.93	414.7		5.212	5	25.7	10.285	0.0069	1562.12	1.9604	156.1898	79.6717	3062.411	0.458	0.7329
5.222	5	26.71	1.05	92.96	0.0063	3588	166	19.93	417.6		5.222	5	26.7	10.285	0.0063	1563.783	1.9504	158.0946	81.0573	3050.011	0.4638	0.7273
5.232	5	27.71	1.05	93.03	0.0071	3609	166	19.93	421.4		5.232	5	27.7	10.285	0.0071	1562.12	1.9424	158.0946	81.3917	3034.251	0.4684	0.72
5.242	5	28.71	1.1	92.88	0.0064	3624	166	19.93	425.8		5.242	5	28.7	10.29	0.0064	1566.448	1.9358	157.8733	81.5559	3032.279	0.4723	0.7117
5.252	5	29.71	1.09	92.88	0.0062	3575	166	19.93	427.6		5.252	5	29.7	10.289	0.0062	1566.296	1.9546	157.9175	80.7911	3061.545	0.4613	0.7085
5.262	5	30.71	1.02	92.54	0.0058	3507	166	19.94	425.1		5.262	5	30.7	10.282	0.0058	1573.374	1.9825	158.2276	79.8114	3119.245	0.4452	0.7132
5.272	5	31.71	1	92.57	0.0033	3593	165	19.93	420.4		5.272	5	31.7	10.28	0.0033	1572.346	1.9494	157.3626	80.722	3065.195	0.4644	0.7218
5.282	5	32.71	1	92.84	0.0078	3597	164	19.94	417		5.282	5	32.7	10.28	0.0078	1565.88	1.9479	156.4089	80.2957	3050.194	0.4652	0.7283
5.292	5	33.71	0.95	93.25	0.0058	3626	164	19.93	414.3		5.292	5	33.7	10.275	0.0058	1555.404	1.9378	156.6284	80.8264	3014.119	0.4711	0.7336
5.302	5	34.71	0.95	93.24	0.0057	3620	163	19.94	412.9		5.302	5	34.7	10.275	0.0057	1555.64	1.9401	155.6733	80.2396	3018.107	0.4698	0.7363
5.312	5	35.71	0.91	93.3	0.0055	3671	163	19.94	412.1		5.312	5	35.7	10.271	0.0055	1553.623	1.9217	155.8481	81.0982	2985.631	0.4804	0.738
5.322	5	36.71	0.89	93.26	0.0049	3643	163	19.94	411		5.322	5	36.7	10.269	0.0049	1554.261	1.9326	155.9357	80.6886	3003.703	0.4742	0.7402
5.332	5	37.71	0.9	93.05	0.0041	3648	161	19.94	408		5.332	5	37.7	10.27	0.0041	1559.368	1.9305	153.9791	79.7614	3010.354	0.4754	0.7462
5.342	5	38.71	0.85	93.06	0.0048	3708	159	19.93	403.9		5.342	5	38.7	10.265	0.0048	1558.373	1.9092	152.28	79.7619	2975.216	0.4877	0.7545
5.352	5	39.71	0.85	93.23	0.0042	3652	157	19.94	398.5		5.352	5	39.7	10.265	0.0042	1554.361	1.9299	150.3645	77.9116	2999.819	0.4757	0.7657
5.362	5	40.71	0.8	93.22	0.0046	3660	155	19.94	397		5.362	5	40.7	10.26	0.0046	1553.839	1.9279	148.6577	77.1093	2995.622	0.4769	0.7691
5.372	5	41.71	0.8	93.32	0.0048	3666	157	19.94	395.1		5.372	5	41.7	10.26	0.0048	1551.49	1.9256	150.5759	78.195	2987.617	0.4782	0.7731
5.382	5	42.71	0.8	93.65	0.0054	3732	158	19.94	391.4		5.382	5	42.7	10.26	0.0054	1543.786	1.9013	151.5349	79.6988	2935.269	0.4923	0.7811
5.392	5	43.71	0.76	93.73	0.0047	3724	160	19.94	388.4		5.392	5	43.7	10.256	0.0047	1541.328	1.905	153.6257	80.6434	2936.232	0.4901	0.7878
5.402	5	44.71	0.75	93.63	0.0049	3684	163	19.94	388.9		5.402	5	44.7	10.255	0.0049	1543.498	1.9199	156.5502	81.5411	2963.352	0.4815	0.7866
5.412	5	45.71	0.75	93.33	0.0043	3667	164	19.94	390		5.412	5	45.7	10.255	0.0043	1550.499	1.9262	157.5107	81.7723	2986.587	0.4778	0.7843
5.422	5	46.71	0.72	93.14	0.0034	3615	165	19.94	391.3		5.422	5	46.7	10.252	0.0034	1554.511	1.9464	158.6049	81.488	3025.637	0.4661	0.7815
5.432	5	47.71	0.74	92.99	0.0039	3635	165	19.94	393		5.432	5	47.7	10.254	0.0039	1558.359	1.9384	158.5157	81.7764	3020.726	0.4708	0.7776
5.442	5	48.71	0.72	93.05	0.0045	3620	163	19.93	393.1		5.442	5	48.7	10.252	0.0045	1556.635	1.9445	156.6824	80.5789	3026.814	0.4673	0.7774
5.452	5	49.71	0.79	93.06	0.0046	3659	162	19.94	392.8		5.452	5	49.7	10.259	0.0046	1557.462	1.9284	155.415	80.5908	3003.48	0.4765	0.7782
5.462	5	50.71	0.8	93.23	0.0041	3678	161	19.94	394.1		5.462	5	50.7	10.26	0.0041	1553.604	1.9212	154.4122	80.3736	2984.755	0.4808	0.7752
5.472	5	51.71	0.85	93.25	0.0038	3679	160	19.94	396.4		5.472	5	51.7	10.265	0.0038	1553.89	1.9199	153.2377	79.8165	2983.276	0.4815	0.7704
5.482	5	52.71	0.88	93.38	0.004	3668	162	19.94	395.9		5.482	5	52.7	10.268	0.004	1551.292	1.9234	155.0226	80.5982	2983.754	0.4795	0.7715
5.492	5	53.71	0.96	93.41	0.0037	3601	163	19.94	396.8		5.492	5	53.7	10.276	0.0037	1551.797	1.9471	155.6296	79.9273	3021.568	0.4657	0.7694
5.502	5	54.71	1.01	93.25	0.0035	3586	165	19.94	397.8		5.502	5	54.7	10.281	0.0035	1556.313	1.9519	157.3185	80.5963	3037.816	0.4629	0.7673
5.512	5	55.71	1.1	93.23	0.0036	3609	165	19.95	398.4		5.512	5	55.7	10.29	0.0036	1558.146	1.9414	156.9222	80.8274	3025.061	0.469	0.7661
5.522	5	56.71	1.25	93.33	0.0036	3665	166	19.95	399.3		5.522	5	56.7	10.305	0.0036	1558.059	1.9176	157.2119	81.9834	2987.744	0.4828	0.7642
5.532	5	57.71	1.36	93.27	0.0035	3624	165	19.94	398.8		5.532	5	57.7	10.316	0.0035	1561.138	1.9309	155.7853	80.6807	3014.383	0.4751	0.7651
5.542	5	58.71	1.39	93.29	0.0032	3644	163	19.96	400.2		5.542	5	58.7	10.319	0.0032	1561.12	1.9228	153.7681	79.97	3001.756	0.4798	0.7623
5.552	5	59.71	1.4	93.36	0.0036	3653	163	19.96	399.8		5.552	5	59.7	10.32	0.0036	1559.619	1.9193	153.7252	80.0953	2993.344	0.4819	0.7631
5.562	5	60.71	1.45	93.62	0.0026	3697	161	19.96	399.2		5.562	5	60.7	10.325	0.0026	1554.268	1.9021	151.6273	79.7155	2956.381	0.4918	0.7642
5.572	5	61.71	1.7	93.64	0.003	3658	162	19.96	399		5.572	5	61.7	10.35	0.003	1557.562	1.9119	151.5102	79.2475	2977.842	0.4862	0.7647
5.582	5	62.71	1.7	93.71	0.0032	3720	163	19.96	397.3		5.582	5	62.7	10.35	0.0032	1555.923	1.8891	152.4455	80.6954	2939.367	0.4993	0.7684
5.592	5	63.71	1.69	93.71	0.0034	3642	165	19.96	396.6		5.592	5	63.7	10.349	0.0034	1555.773	1.918	154.3589	80.4793	2983.963	0.4826	0.7698
5.602	5	64.71	1.65	93.66	0.0032	3619	169	19.96	396.6		5.602	5	64.7	10.345	0.0032	1556.341	1.9274	158.277	82.1213	2999.622	0.4772	0.7699
5.612	5	65.71	1.6	93.52	0.0034	3677	175	19.96	393.5		5.612	5	65.7	10.34	0.0034	1558.872	1.9067	164.1246	86.0785	2972.28	0.4892	0.7765
5.622	5	66.71	1.71	93.29	0.0028	3621	184	19.96	390.7		5.622	5	66.7	10.351	0.0028	1565.961	1.9255	172.0378	89.3477	3015.235	0.4783	0.7827
5.632	5	67.71	1.6	93.15	0.0031	3569	195	19.96	389.7		5.632	5	67.7	10.34	0.0031	1567.617	1.9473	182.8817	93.9155	3052.62	0.4656	0.7848
5.642	5	68.71	1.49	92.79	0.0037	3612	209	19.96	391.8		5.642	5	68.7	10.329	0.0037	1574.543	1.933	196.6135	101.7151	3043.565	0.4739	0.7803
5.652	5	69.71	1.5	92.64	0.0022	3542	226	19.96	394.5		5.652	5	69.7	10.33	0.0022	1578.304	1.9596	212.5467	108.4634	3092.872	0.4585	0.7744
5.662	5	70.71	1.45	92.43	0.0032	3561	243	19.96	397		5.662	5	70.7	10.325	0.0032	1582.618	1.9532	228.8537	117.168	3091.185	0.4622	0.769
5.672	5	71.71	1.4	92.24	0.0018	3412	256	19.96	399.6		5.672	5	71.7	10.32	0.0018	1586.472	2.0134	241.4335	119.9131	3194.208	0.4273	0.7636
5.682	5	72.71	1.33	90.59	0.0013	3434	258	19.97	402.9		5.682	5	72.7	10.313	0.0013	1626.656	2.0058	243.7958	121.5461	3262.73	0.4317	0.7565
5.692	5	73.71	1.25	90.13	0.0013	3335	247	19.96	407.5		5.692	5	73.7	10.305	0.0013	1637.274	2.0484	233.9238	114.1956	3353.871	0.4069	0.7472
5.702	5	74.71	1.2	90.7	0.0013	3522	229	19.96	412.4		5.702	5	74.7	10.3	0.0013	1621.792	1.9731	217.1802	110.0679	3200.034	0.4506	0.7375
5.712	5	75.71	1.15	92.55	0.0032	3693	210	19.96	414.1		5.712	5	75.7	10.295	0.0032	1575.122	1.9091	199.4398	104.4669	3007.095	0.4878	0.7341
5.722	5	76.71	1.01	93.39	0.0039	3706	194	19.96	413.4		5.722	5	76.7	10.281	0.0039	1553.021	1.9069	184.9684	96.9973	2961.522	0.489	0.7354
5.732	5	77.71	0.95	93.63	0.0052	3732	182	19.96	416		5.732	5	77.7	10.275	0.0052	1546.508	1.8986	173.8193	91.5528	2936.153	0.4939	0.7304
5.742	5	78.71	0.89	93.69	0.0049	3711	174	19.96	418.3		5.742	5	78.7	10.269	0.0049	1544.21	1.9073	166.4589	87.2729	2945.332	0.4888	0.726
5.752	5	79.71	0.84	93.66	0.0046	3767	171	19.96	420.7		5.752	5	79.7	10.264	0.0046	1544.155	1.888	163.8188	86.7702	2915.307	0.5	0.7213
5.762	5	80.71	0.79	93.35	0.0049	3657	169	19.96	420.9		5.762	5	80.7	10.259	0.0049	1550.635	1.9292	162.1304	84.0405	2991.475	0.4761	0.721
5.772	5	81.71	0.69	93.13	0.004	3714	169	19.96	421.5		5.772	5	81.7	10.249	0.004	1554.292	1.91	162.587	85.1259	2968.636	0.4873	0.7198
5.782	5	82.71	0.62	93.16	0.0063	3707	170	19.96	421.9		5.782	5	82.7	10.242	0.0063	1552.524	1.9138	163.8716	85.6247	2971.277	0.485	0.7191
5.792	5	83.71	0.57	93.08	0.0055	3649	170	19.96	421.2		5.792	5	83.7	10.237	0.0055	1553.65	1.9363	164.1026	84.7487	3008.399	0.472	0.7203
5.802	5	84.71	0.53	92.95	0.006	3714	169	19.97	420.1		5.802	5	84.7	10.233	0.006	1556.113	1.9129	163.3212	85.3768	2976.761	0.4855	0.7225
5.812	5	85.71	0.51	93.25	0.0052	3640	167	19.97	420.4		5.812	5	85.7	10.231	0.0052	1548.744	1.9409	161.4794	83.1995	3005.911	0.4693	0.7219
5.822	5	86.71	0.41	93.05	0.0044	3709	168	19.96	420.3		5.822	5	86.7	10.221	0.0044	1551.928	1.917	162.9053	84.9779	2975.096	0.4832	0.7221
5.832	5	87.71	0.37	92.65	0.003	3578	168	19.97	420.5		5.832	5	87.7	10.217	0.003	1560.8	1.9673	163.0893	82.9021	3070.487	0.454	0.7218
5.842	5	88.71	0.38	92.2	0.0033	3516	169	19.96	420.2		5.842	5	88.7	10.218	0.0033	1571.758	1.9914	164.0138	82.3627	3129.936	0.44	0.7223
5.852	5	89.71	0.37	92.63	0.0044	3761	171	19.96	419.7		5.852	5	89.7	10.217	0.0044	1561.278	1.8988	166.0016	87.4239	2964.574	0.4937	0.7233
5.862	5	90.71	0.37	93.38	0.0053	3743	172	19.97	420.3		5.862	5	90.7	10.217	0.0053	1543.587	1.9053	166.9724	87.634	2941.054	0.4899	0.7221
5.872	5	91.71	0.42	93.27	0.0038	3664	171	19.97	418.7		5.872	5	91.7	10.222	0.0038	1546.913	1.9336	165.7675	85.7321	2991.036	0.4736	0.7251
5.882	5	92.71	0.47	92.5	0.0015	3604	169	19.97	415.7		5.882	5	92.7	10.227	0.0015	1565.917	1.9553	163.5977	83.668	3061.869	0.461	0.731
5.892	5	93.71	0.57	92.07	0.0018	3577	165	19.97	419.5		5.892	5	93.7	10.237	0.0018	1577.836	1.9638	159.276	81.1062	3098.546	0.456	0.7237
5.902	5	94.71	0.64	92.9	0.0042	3629	162	19.96	420.8		5.902	5	94.7	10.244	0.0042	1558.971	1.9426	156.0721	80.3434	3028.402	0.4684	0.7211
5.912	5	95.71	0.69	93.05	0.0034	3589	160	19.96	419.8		5.912	5	95.7	10.249	0.0034	1556.18	1.9569	153.9285	78.6605	3045.245	0.4601	0.7231
5.922	5	96.71	0.8	92.9	0.0026	3535	159	19.96	419.7		5.922	5	96.7	10.26	0.0026	1561.406	1.9757	152.494	77.1837	3084.915	0.4491	0.7232
5.932	5	97.71	0.85	92.87	0.0021	3599	160	19.97	417.5		5.932	5	97.7	10.265	0.0021	1562.88	1.95	153.2377	78.5838	3047.605	0.464	0.7274
5.942	5	98.71	0.85	92.99	0.0029	3630	161	19.96	417.2		5.942	5	98.7	10.265	0.0029	1560.03	1.9382	154.1955	79.5555	3023.67	0.4709	0.728
5.952	5	99.71	0.86	93.24	0.0024	3652	163	19.97	415.6		5.952	5	99.7	10.266	0.0024	1554.277	1.9297	156.0671	80.8743	2999.365	0.4758	0.7312
5.962	5	100.71	0.89	93.2	0.0023	3584	165	19.96	415.8		5.962	5	100.7	10.269	0.0023	1555.673	1.955	157.849	80.742	3041.313	0.4611	0.7307
5.972	5	101.71	0.93	93.07	0.0022	3577	169	19.96	415.8		5.972	5	101.7	10.273	0.0022	1559.35	1.9569	161.4942	82.525	3051.513	0.46	0.7307
5.982	5	102.71	0.97	92.9	0.0018	3555	171	19.96	416.3		5.982	5	102.7	10.277	0.0018	1563.993	1.9647	163.2222	83.0791	3072.716	0.4555	0.7298
5.992	5	103.71	1	92.85	0.002	3511	172	19.97	417.9		5.992	5	103.7	10.28	0.002	1565.641	1.9813	164.0386	82.7924	3102.042	0.4459	0.7267
6.002	5	104.71	0.95	92.89	0.002	3516	171	19.97	418		6.002	5	104.7	10.275	0.002	1563.927	1.9803	163.3137	82.4687	3097.064	0.4465	0.7265
6.012	5	105.71	0.95	92.87	0.0019	3583	168	19.97	419.5		6.012	5	105.7	10.275	0.0019	1564.403	1.9542	160.4486	82.1035	3057.194	0.4616	0.7235
6.022	5	106.71	0.95	92.96	0.0021	3567	166	19.97	421.4		6.022	5	106.7	10.275	0.0021	1562.262	1.9604	158.5385	80.8708	3062.646	0.458	0.72
6.032	5	107.71	0.95	93.14	0.002	3591	163	19.97	423.9		6.032	5	107.7	10.275	0.002	1557.998	1.9512	155.6733	79.7852	3039.895	0.4634	0.7154
6.042	5	108.71	0.93	93.22	0.0018	3663	161	19.97	426.5		6.042	5	108.7	10.273	0.0018	1555.808	1.9243	153.8495	79.9499	2993.881	0.4789	0.7104
6.052	5	109.71	0.95	93.25	0.0018	3674	157	19.97	428.7		6.052	5	109.7	10.275	0.0018	1555.404	1.9199	149.943	78.101	2986.159	0.4815	0.7065
6.062	5	110.71	0.9	93.33	0.0018	3606	155	19.97	431.6		6.062	5	110.7	10.27	0.0018	1552.767	1.9464	148.2408	76.1626	3022.261	0.4661	0.7012
6.072	5	111.71	0.7	93.3	0.0023	3695	152	19.99	434.7		6.072	5	111.7	10.25	0.0023	1550.446	1.9168	146.1909	76.2698	2971.835	0.4833	0.6957
6.082	5	112.71	0.71	93.39	0.0024	3705	148	19.99	436.8		6.082	5	112.7	10.251	0.0024	1548.489	1.9129	142.3038	74.392	2962.092	0.4856	0.6921
6.092	5	113.71	0.69	93.42	0.0022	3702	144	19.98	441.3		6.092	5	113.7	10.249	0.0022	1547.486	1.9144	138.5357	72.3663	2962.458	0.4847	0.6842
6.102	5	114.71	0.72	93.53	0.0022	3756	140	19.98	443.4		6.102	5	114.7	10.252	0.0022	1545.372	1.8941	134.5738	71.0477	2927.14	0.4964	0.6807
6.112	5	115.71	0.69	93.48	0.002	3726	135	19.98	445		6.112	5	115.7	10.249	0.002	1546.085	1.9056	129.8772	68.1565	2946.177	0.4898	0.6779
6.122	5	116.71	0.71	93.92	0.0023	3845	131	19.99	449.3		6.122	5	116.7	10.251	0.0023	1536.191	1.8627	125.9581	67.6204	2861.498	0.5147	0.6709
6.132	5	117.71	0.67	94.2	0.0023	3847	126	19.98	452.6		6.132	5	117.7	10.247	0.0023	1529.175	1.8628	121.2869	65.1117	2848.474	0.5146	0.6654
6.142	5	118.71	0.63	94	0.002	3806	122	19.99	458.4		6.142	5	118.7	10.243	0.002	1533.154	1.8779	117.5689	62.6063	2879.122	0.5059	0.6562
6.152	5	119.71	0.62	93.75	0.002	3785	119	19.98	462.4		6.152	5	119.7	10.242	0.002	1538.762	1.8856	114.7101	60.8359	2901.437	0.5014	0.6498
6.162	5	120.71	0.62	93.77	0.0022	3822	115	19.98	464.1		6.162	5	120.7	10.242	0.0022	1538.3	1.8724	110.8543	59.2033	2880.366	0.509	0.6472
6.172	5	121.71	0.67	94.01	0.0021	3807	114	19.98	463.3		6.172	5	121.7	10.247	0.0021	1533.523	1.8768	109.7358	58.469	2878.147	0.5065	0.6485
6.182	5	122.71	0.67	94.01	0.0019	3787	114	19.98	459.7		6.182	5	122.7	10.247	0.0019	1533.523	1.8839	109.7358	58.2483	2889.052	0.5024	0.6541
6.192	5	123.71	0.69	94.01	0.0019	3862	115	19.99	456.7		6.192	5	123.7	10.249	0.0019	1533.822	1.8572	110.6361	59.5726	2848.562	0.5179	0.6589
6.202	5	124.71	0.79	94.05	0.0028	3866	117	19.99	453.1		6.202	5	124.7	10.259	0.0028	1534.4	1.854	112.2441	60.5426	2844.73	0.5197	0.6646
6.212	5	125.71	0.85	94.07	0.0023	3854	121	19.98	450.6		6.212	5	125.7	10.265	0.0023	1534.839	1.857	115.886	62.4033	2850.27	0.518	0.6687
6.222	5	126.71	0.89	93.85	0.0024	3812	126	19.98	448.1		6.222	5	126.7	10.269	0.0024	1540.504	1.871	120.5392	64.4239	2882.335	0.5098	0.6728
6.232	5	127.71	0.95	93.81	0.0021	3798	130	19.99	442.4		6.232	5	127.7	10.275	0.0021	1542.33	1.8749	124.1566	66.2207	2891.7	0.5076	0.6825
6.242	5	128.71	1.09	93.72	0.0022	3771	137	19.99	433.1		6.242	5	128.7	10.289	0.0022	1546.52	1.8819	130.3295	69.2526	2910.465	0.5035	0.6986
6.252	5	129.71	1.17	93.75	0.0022	3782	142	19.99	429.3		6.252	5	129.7	10.297	0.0022	1547.025	1.8766	134.7838	71.8249	2903.087	0.5066	0.7054
6.262	5	130.71	1.28	93.69	0.0016	3726	149	19.99	415.1		6.262	5	130.7	10.308	0.0016	1550.075	1.8947	140.9937	74.4161	2936.873	0.4961	0.7321
6.272	5	131.71	1.35	93.7	0.0013	3721	157	19.99	408.2		6.272	5	131.7	10.315	0.0013	1550.895	1.8952	148.2735	78.2366	2939.246	0.4958	0.7457
6.282	5	132.71	1.5	93.73	0.0012	3672	166	19.99	407.4		6.282	5	132.7	10.33	0.0012	1552.45	1.9104	156.1184	81.7212	2965.764	0.487	0.7473
6.292	5	133.71	1.58	93.44	0.001	3655	177	19.99	406.3		6.292	5	133.7	10.338	0.001	1560.453	1.9152	166.0928	86.7238	2988.57	0.4842	0.7495
6.302	5	134.71	1.71	93.36	0.0007	3566	189	19.99	405.6		6.302	5	134.7	10.351	0.0007	1564.304	1.9464	176.7127	90.7904	3044.733	0.4661	0.751
6.312	5	135.71	1.75	93.26	0.0008	3610	200	19.99	402.4		6.312	5	135.7	10.355	0.0008	1567.277	1.9289	186.7897	96.8382	3023.096	0.4763	0.7576
6.322	5	136.71	1.85	92.69	0.0004	3458	210	19.99	399.7		6.322	5	136.7	10.365	0.0004	1582.443	1.9861	195.5849	98.4784	3142.842	0.4431	0.7632
6.332	5	137.71	1.96	91.09	0.0003	3385	216	19.99	396.8		6.332	5	137.7	10.376	0.0003	1623.787	2.0136	200.5598	99.6024	3269.664	0.4271	0.7694
6.342	5	138.71	2.16	90.67	0.0004	3456	219	19.99	394.1		6.342	5	138.7	10.396	0.0004	1637.681	1.9809	202.2215	102.0833	3244.158	0.4461	0.7752
6.352	5	139.71	3.14	91.3	0.0003	3474	221	20	394		6.352	5	139.7	10.494	0.0003	1636.874	1.9553	198.6367	101.5863	3200.66	0.4609	0.7754
6.362	5	140.71	2.83	91.6	0.0002	3527	223	20	392.8		6.362	5	140.7	10.463	0.0002	1624.437	1.9405	202.1457	104.1732	3152.184	0.4696	0.7781
6.372	5	141.71	2.82	92.26	0.0002	3471	224	20	391.5		6.372	5	141.7	10.462	0.0002	1607.807	1.9625	203.1079	103.4938	3155.341	0.4568	0.7809
6.382	5	142.71	3.59	92.36	0.0002	3435	220	20	387.9		6.382	5	142.7	10.539	0.0002	1617.155	1.9624	195.3227	99.5336	3173.472	0.4569	0.789
6.392	5	143.71	3.82	99.41	0.0001	3882	209	19.99	379.7		6.392	5	143.7	10.562	0.0001	1462.476	1.7954	184.399	102.7056	2625.749	0.5537	0.8077
6.402	5	144.71	4.12	999	0	3796	195	20	370.3		6.402	5	144.7	10.592	0	108.9925	1.8195	170.6525	93.7926	198.3082	0.5398	0.8304
6.412	5	145.71	4.13	93.26	0.0006	3685	178	19.99	355.4		6.412	5	145.7	10.593	0.0006	1603.299	1.8583	155.7329	83.8051	2979.371	0.5172	0.869
6.422	5	146.71	3.75	94.63	0.0016	3703	162	19.99	332.4		6.422	5	146.7	10.555	0.0016	1565.095	1.8585	143.2035	77.0528	2908.747	0.5171	0.9356
6.432	5	147.71	3.7	94.96	0.0004	3653	147	20	293		6.432	5	147.7	10.55	0.0004	1556.736	1.8774	130.1208	69.3077	2922.674	0.5061	1.0752
6.442	5	148.71	3.98	94.64	0.0008	3643	136	20	234.7		6.442	5	148.7	10.578	0.0008	1568.273	1.8761	119.4716	63.6806	2942.249	0.5069	1.3735
6.452	5	149.71	4.52	94.84	0.0013	3759	127	20	183.9		6.452	5	149.7	10.632	0.0013	1571.619	1.8254	109.9481	60.2326	2868.819	0.5363	1.7976
6.462	5	150.71	6.6	999	0	4662	122	20	162.9		6.462	5	150.7	10.84	0	111.5444	1.525	99.9228	65.5211	170.1106	0.7105	2.0549
6.472	6	0.77	6.6	999	0	9660	120	20	179.9		6.472	6	0.8	10.84	0	111.5444	0.7442	98.2847	132.0673	83.0115	1.1635	1.8421
6.482	6	1.77	6.62	999	0	3781	120	19.99	227.8		6.482	6	1.8	10.842	0	111.565	1.7826	98.2329	55.1075	198.8723	0.5612	1.4194
6.492	6	2.77	6.6	999	0	3675	121	20	284.6		6.492	6	2.8	10.84	0	111.5444	1.8194	99.1037	54.4693	202.9486	0.5398	1.1102
6.502	6	3.77	6.25	999	0	3676	122	19.99	329.7		6.502	6	3.8	10.805	0	111.1843	1.825	100.8504	55.261	202.9094	0.5366	0.944
6.512	6	4.77	4.98	999	0	3703	122	20	359.1		6.512	6	4.8	10.678	0	109.8774	1.8371	104.3208	56.7855	201.8562	0.5295	0.859
6.522	6	5.77	1.41	999	0	3788	122	20	376.7		6.522	6	5.8	10.321	0	106.2039	1.8701	115.0261	61.509	198.6087	0.5104	0.8148
6.532	6	6.77	0.38	127.34	0.0001	3860	122	20	388.4		6.532	6	6.8	10.218	0.0001	1020.27	1.8635	118.4005	63.5367	1901.269	0.5142	0.7879
6.542	6	7.77	0.28	999	0	3842	121	20	395.3		6.542	6	7.8	10.208	0	105.0411	1.8716	117.7622	62.9198	196.5974	0.5095	0.7726
6.552	6	8.77	0.2	123.24	0.0001	4011	122	20	401.5		6.552	6	8.8	10.2	0.0001	1061.947	1.8154	119.0044	65.5516	1927.89	0.5421	0.7596
6.562	6	9.77	0.13	118.34	0.0002	3914	122	20	406		6.562	6	9.8	10.193	0.0002	1118.267	1.8494	119.2404	64.4759	2068.097	0.5224	0.7502
6.572	6	10.77	0.04	118.49	0.0002	3826	122	20	411		6.572	6	10.8	10.184	0.0002	1115.444	1.8817	119.5448	63.5308	2098.91	0.5037	0.7402
6.582	6	11.77	0.07	118.58	0.0003	3841	124	20	416.1		6.582	6	11.8	10.187	0.0003	1114.673	1.8758	121.4012	64.7186	2090.941	0.5071	0.7301
6.592	6	12.77	0.07	119.05	0.0002	3913	127	20.01	419.4		6.592	6	12.8	10.187	0.0002	1108.97	1.8508	124.3384	67.1805	2052.493	0.5216	0.7238
6.602	6	13.77	0.08	118.78	0.0002	3836	131	20.01	420.8		6.602	6	13.8	10.188	0.0002	1112.349	1.8774	128.2182	68.2953	2088.335	0.5061	0.7211
6.612	6	14.77	0.15	114.03	0.0003	3865	138	20	421.2		6.612	6	14.8	10.195	0.0003	1173.998	1.866	134.8021	72.2429	2190.629	0.5128	0.7204
6.622	6	15.77	0.21	103.44	0.0008	3960	146	20	422.6		6.622	6	15.8	10.201	0.0008	1337.836	1.8323	142.3748	77.703	2451.31	0.5323	0.7178
6.632	6	16.77	0.27	104.75	0.0005	3945	157	20	424.2		6.632	6	16.8	10.207	0.0005	1316.013	1.8363	152.8421	83.2344	2416.576	0.53	0.7149
6.642	6	17.77	0.37	98.58	0.0005	3869	169	20.01	425		6.642	6	17.8	10.217	0.0005	1431.153	1.8605	164.0601	88.1784	2662.727	0.5159	0.7133
6.652	6	18.77	0.42	97.92	0.0006	3699	179	20.01	424.7		6.652	6	18.8	10.222	0.0006	1445.214	1.9205	173.5227	90.3513	2775.581	0.4811	0.7138
6.662	6	19.77	0.56	97.74	0.0005	3636	185	20.01	424.5		6.662	6	19.8	10.236	0.0005	1450.886	1.9414	178.6325	92.0106	2816.798	0.469	0.7141
6.672	6	20.77	0.57	98.18	0.0003	3644	186	20.01	423.9		6.672	6	20.8	10.237	0.0003	1442.034	1.9382	179.5475	92.635	2794.987	0.4709	0.7154
6.682	6	21.77	0.66	98.41	0.0006	3653	184	20	422.6		6.682	6	21.8	10.246	0.0006	1438.641	1.9331	177.1673	91.6474	2781.095	0.4738	0.7177
6.692	6	22.77	0.63	97.53	0.0006	3681	181	20.01	423.2		6.692	6	22.8	10.243	0.0006	1456.213	1.9233	174.4259	90.6931	2800.669	0.4796	0.7166
6.702	6	23.77	0.67	92.39	0.001	3652	179	20.01	420.9		6.702	6	23.8	10.247	0.001	1571.626	1.9333	172.3045	89.1233	3038.467	0.4737	0.7209
6.712	6	24.77	0.67	92.4	0.0012	3649	177	20.01	422.4		6.712	6	24.8	10.247	0.0012	1571.385	1.9345	170.3793	88.0762	3039.77	0.4731	0.7181
6.722	6	25.77	0.67	92.69	0.0018	3630	175	20	422.4		6.722	6	25.8	10.247	0.0018	1564.427	1.9416	168.4541	86.7597	3037.519	0.4689	0.7181
6.732	6	26.77	0.67	92.13	0.002	3612	173	20.01	423.5		6.732	6	26.8	10.247	0.002	1577.918	1.9485	166.5289	85.4673	3074.497	0.4649	0.7161
6.742	6	27.77	0.67	92.33	0.0028	3589	170	20.01	422.3		6.742	6	27.8	10.247	0.0028	1573.073	1.9573	163.6411	83.6075	3078.905	0.4598	0.7183
6.752	6	28.77	0.64	92.57	0.0013	3605	167	20.01	421.6		6.752	6	28.8	10.244	0.0013	1566.84	1.9517	160.8891	82.4356	3057.992	0.4631	0.7197
6.762	6	29.77	0.68	92.2	0.0008	3632	164	20.01	421.3		6.762	6	29.8	10.248	0.0008	1576.373	1.9407	157.8211	81.323	3059.221	0.4694	0.7202
6.772	6	30.77	0.62	92.3	0.0015	3638	163	20.01	420.9		6.772	6	30.8	10.242	0.0015	1573.03	1.9395	157.124	81.0109	3050.956	0.4701	0.7209
6.782	6	31.77	0.63	92.43	0.0032	3670	162	20.01	418.7		6.782	6	31.8	10.243	0.0032	1570.049	1.9273	156.116	81.0004	3026.031	0.4772	0.7252
6.792	6	32.77	0.57	92.72	0.0047	3665	164	20.01	419.6		6.792	6	32.8	10.237	0.0047	1562.185	1.9303	158.3107	82.0116	3015.556	0.4754	0.7234
6.802	6	33.77	0.57	92.51	0.0035	3598	165	20.01	419.7		6.802	6	33.8	10.237	0.0035	1567.208	1.9557	159.276	81.4416	3065.002	0.4607	0.7231
6.812	6	34.77	0.57	92.55	0.0047	3607	166	20.01	417		6.812	6	34.8	10.237	0.0047	1566.248	1.9523	160.2413	82.0798	3057.73	0.4627	0.7283
6.822	6	35.77	0.57	92.66	0.0034	3620	168	20.01	413.2		6.822	6	35.8	10.237	0.0034	1563.617	1.9473	162.172	83.28	3044.844	0.4656	0.7359
6.832	6	36.77	0.52	92.61	0.003	3618	169	20.02	411.4		6.832	6	36.8	10.232	0.003	1564.048	1.949	163.3673	83.8202	3048.362	0.4646	0.7393
6.842	6	37.77	0.47	92.55	0.0031	3613	170	20.02	407.1		6.842	6	37.8	10.227	0.0031	1564.719	1.9519	164.5658	84.3114	3054.143	0.4629	0.7481
6.852	6	38.77	0.48	92.41	0.0048	3655	169	20.01	404.8		6.852	6	38.8	10.228	0.0048	1568.23	1.9358	163.5517	84.4883	3035.767	0.4723	0.7526
6.862	6	39.77	0.33	92.58	0.0047	3597	169	20.02	404.5		6.862	6	39.8	10.213	0.0047	1561.86	1.9607	164.2456	83.7693	3062.322	0.4578	0.7534
6.872	6	40.77	0.32	92.61	0.0035	3641	169	20.01	405.5		6.872	6	40.8	10.212	0.0035	1560.99	1.9441	164.2919	84.5078	3034.727	0.4675	0.7512
6.882	6	41.77	0.33	92.47	0.0055	3687	169	20.01	400.4		6.882	6	41.8	10.213	0.0055	1564.491	1.9267	164.2456	85.2483	3014.264	0.4776	0.7617
6.892	6	42.77	0.33	92.44	0.0065	3630	169	20.02	399.7		6.892	6	42.8	10.213	0.0065	1565.211	1.9481	164.2456	84.3115	3049.157	0.4652	0.7634
6.902	6	43.77	0.29	92.47	0.0147	3666	169	20.02	396.6		6.902	6	43.8	10.209	0.0147	1563.879	1.9353	164.4313	84.9658	3026.519	0.4726	0.7698
6.912	6	44.77	0.34	92.67	0.01	3595	169	20.02	395.7		6.912	6	44.8	10.214	0.01	1559.866	1.9613	164.1992	83.721	3059.313	0.4575	0.7718
6.922	6	45.77	0.34	92.56	0.0077	3644	169	20.01	392.7		6.922	6	45.8	10.214	0.0077	1562.49	1.9426	164.1992	84.5259	3035.278	0.4683	0.7782
6.932	6	46.77	0.35	92.57	0.007	3545	169	20.02	392.4		6.932	6	46.8	10.215	0.007	1562.404	1.9805	164.1528	82.8845	3094.343	0.4463	0.7789
6.942	6	47.77	0.36	92.53	0.0064	3657	170	20.02	390.8		6.942	6	47.8	10.216	0.0064	1563.514	1.9373	165.0775	85.2095	3029.017	0.4714	0.7825
6.952	6	48.77	0.36	92.56	0.0059	3605	170	20.02	391.2		6.952	6	48.8	10.216	0.0059	1562.796	1.957	165.0775	84.3505	3058.46	0.46	0.7815
6.962	6	49.77	0.35	92.64	0.0047	3662	173	20.01	390.7		6.962	6	49.8	10.215	0.0047	1560.733	1.9356	168.0381	86.8133	3020.997	0.4724	0.7827
6.972	6	50.77	0.29	92.58	0.0051	3645	176	20.02	391.4		6.972	6	50.8	10.209	0.0051	1561.248	1.9432	171.2421	88.1254	3033.759	0.468	0.7811
6.982	6	51.77	0.34	92.46	0.0071	3604	179	20.02	393.4		6.982	6	51.8	10.214	0.0071	1564.884	1.9578	173.9151	88.8315	3063.746	0.4595	0.7767
6.992	6	52.77	0.28	92.12	0.0068	3617	183	20.02	394.9		6.992	6	52.8	10.208	0.0068	1572.155	1.954	178.1032	91.1487	3071.967	0.4617	0.7736
7.002	6	53.77	0.37	92.12	0.0036	3567	186	20.03	397.6		7.002	6	53.8	10.217	0.0036	1573.541	1.9715	180.5632	91.5858	3102.268	0.4516	0.7678
7.012	6	54.77	0.37	92.43	0.007	3692	186	20.02	399.3		7.012	6	54.8	10.217	0.007	1566.064	1.9241	180.5632	93.8447	3013.207	0.4791	0.7642
7.022	6	55.77	0.47	92.52	0.0069	3645	187	20.03	401		7.022	6	55.8	10.227	0.0069	1565.437	1.9397	181.0223	93.3229	3036.546	0.47	0.7605
7.032	6	56.77	0.57	92.54	0.004	3622	188	20.02	401.2		7.032	6	56.8	10.237	0.004	1566.488	1.9465	181.4781	93.2307	3049.245	0.466	0.7602
7.042	6	57.77	0.57	92.93	0.0107	3729	188	20.03	402.4		7.042	6	57.8	10.237	0.0107	1557.195	1.9067	181.4781	95.1786	2969.12	0.4891	0.7577
7.052	6	58.77	0.59	93.33	0.0076	3659	190	20.03	401.9		7.052	6	58.8	10.239	0.0076	1548.08	1.9322	183.3054	94.8682	2991.219	0.4744	0.7587
7.062	6	59.77	0.74	92.96	0.0062	3578	190	20.03	402.5		7.062	6	59.8	10.254	0.0062	1559.069	1.9602	182.5332	93.1219	3056.015	0.4581	0.7573
7.072	6	60.77	0.7	92.47	0.006	3607	190	20.03	399.8		7.072	6	60.8	10.25	0.006	1570.159	1.9498	182.7387	93.7223	3061.478	0.4642	0.763
7.082	6	61.77	0.69	92.82	0.0039	3598	187	20.03	399.5		7.082	6	61.8	10.249	0.0039	1561.633	1.9534	179.9039	92.0969	3050.525	0.4621	0.7637
7.092	6	62.77	0.66	92.91	0.0071	3651	186	20.03	401.1		7.092	6	62.8	10.246	0.0071	1559.038	1.9339	179.093	92.6076	3015.01	0.4734	0.7604
7.102	6	63.77	0.57	93.09	0.0061	3639	184	20.03	400.5		7.102	6	63.8	10.237	0.0061	1553.414	1.9401	177.6169	91.5499	3013.795	0.4698	0.7616
7.112	6	64.77	0.52	92.98	0.0062	3661	184	20.03	399.9		7.112	6	64.8	10.232	0.0062	1555.251	1.9328	177.8674	92.0265	3005.967	0.474	0.7628
7.122	6	65.77	0.46	92.96	0.0057	3666	185	20.04	399.8		7.122	6	65.8	10.226	0.0057	1554.812	1.932	179.1368	92.7187	3003.971	0.4745	0.7631
7.132	6	66.77	0.42	92.82	0.0047	3656	187	20.04	400		7.132	6	66.8	10.222	0.0047	1557.519	1.9366	181.2779	93.6086	3016.217	0.4718	0.7627
7.142	6	67.77	0.36	92.52	0.0065	3626	188	20.04	397.4		7.142	6	67.8	10.216	0.0065	1563.753	1.949	182.5563	93.6653	3047.799	0.4646	0.7681
7.152	6	68.77	0.35	92.12	0.0055	3550	188	20.04	397.4		7.152	6	68.8	10.215	0.0055	1573.233	1.9785	182.6078	92.2942	3112.705	0.4475	0.7681
7.162	6	69.77	0.26	91.97	0.0052	3556	187	20.04	396.1		7.162	6	69.8	10.206	0.0052	1575.486	1.9779	182.0991	92.0652	3116.213	0.4478	0.7709
7.172	6	70.77	0.26	92.24	0.0088	3643	185	20.04	395.6		7.172	6	70.8	10.206	0.0088	1568.947	1.9445	180.1515	92.6472	3050.802	0.4672	0.7721
7.182	6	71.77	0.21	92.46	0.0074	3656	185	20.04	393.8		7.182	6	71.8	10.201	0.0074	1562.893	1.9405	180.4064	92.9672	3032.854	0.4695	0.7758
7.192	6	72.77	0.18	92.48	0.0068	3649	184	20.04	392.8		7.192	6	72.8	10.198	0.0068	1561.954	1.9437	179.5836	92.3904	3036.046	0.4677	0.778
7.202	6	73.77	0.16	92.54	0.0069	3659	183	20.05	392.1		7.202	6	73.8	10.196	0.0069	1560.214	1.9404	178.7087	92.1007	3027.379	0.4696	0.7796
7.212	6	74.77	0.17	92.55	0.0071	3632	183	20.04	391.4		7.212	6	74.8	10.197	0.0071	1560.128	1.9504	178.6581	91.6018	3042.839	0.4638	0.7811
7.222	6	75.77	0.14	92.49	0.0075	3591	181	20.04	391.2		7.222	6	75.8	10.194	0.0075	1561.103	1.9667	176.8557	89.927	3070.155	0.4544	0.7816
7.232	6	76.77	0.11	92.41	0.0064	3567	179	20.05	391.3		7.232	6	76.8	10.191	0.0064	1562.557	1.9766	175.0501	88.5635	3088.473	0.4486	0.7813
7.242	6	77.77	0.16	92.21	0.0063	3628	178	20.04	392.9		7.242	6	77.8	10.196	0.0063	1568.133	1.9521	173.8259	89.0461	3061.136	0.4628	0.7779
7.252	6	78.77	0.17	92.16	0.0066	3598	176	20.05	395.8		7.252	6	78.8	10.197	0.0066	1569.493	1.9634	171.8242	87.5145	3081.513	0.4563	0.7715
7.262	6	79.77	0.14	92.23	0.0063	3645	173	20.05	398		7.262	6	79.8	10.194	0.0063	1567.343	1.946	169.0389	86.8638	3050.085	0.4663	0.7669
7.272	6	80.77	0.12	92.55	0.0062	3659	170	20.04	400.4		7.272	6	80.8	10.192	0.0062	1559.363	1.9411	166.2017	85.6214	3026.916	0.4692	0.7619
7.282	6	81.77	0.09	92.64	0.0065	3651	168	20.49	403.1		7.282	6	81.8	10.189	0.0065	1556.761	1.9447	164.3859	84.5298	3027.448	0.4671	0.7562
7.292	6	82.77	0.11	92.67	0.0063	3623	165	21.74	404.5		7.292	6	82.8	10.191	0.0063	1556.353	1.955	161.359	82.5386	3042.597	0.4612	0.7533
7.302	6	83.77	0.12	92.82	0.0063	3635	163	21.91	405.3		7.302	6	83.8	10.192	0.0063	1552.948	1.9502	159.3581	81.7139	3028.551	0.4639	0.7516
7.312	6	84.77	0.17	92.85	0.0063	3646	162	22.06	404.8		7.312	6	84.8	10.197	0.0063	1553	1.9451	158.1564	81.3113	3020.697	0.4669	0.7527
7.322	6	85.77	0.21	92.87	0.0054	3667	160	22.21	406.4		7.322	6	85.8	10.201	0.0054	1553.136	1.9364	156.0271	80.5756	3007.504	0.4719	0.7494
7.332	6	86.77	0.17	92.74	0.0038	3606	159	22.33	408.3		7.332	6	86.8	10.197	0.0038	1555.606	1.9603	155.2276	79.1854	3049.464	0.4581	0.7455
7.342	6	87.77	0.22	92.82	0.0061	3674	158	22.43	407.5		7.342	6	87.8	10.202	0.0061	1554.472	1.9336	154.0332	79.6615	3005.724	0.4736	0.7471
7.352	6	88.77	0.27	92.95	0.0051	3618	157	22.53	391.4		7.352	6	88.8	10.207	0.0051	1552.159	1.9538	152.8421	78.2283	3032.601	0.4618	0.7812
7.362	6	89.77	0.32	93	0.0053	3649	154	22.62	389.8		7.362	6	89.8	10.212	0.0053	1551.74	1.9411	149.7098	77.1269	3012.057	0.4692	0.7848
7.372	6	90.77	0.42	93.01	0.0053	3632	152	22.68	390.8		7.372	6	90.8	10.222	0.0053	1553.023	1.9456	147.3489	75.7341	3021.573	0.4666	0.7824
7.382	6	91.77	0.57	93.01	0.0052	3661	150	22.74	389.2		7.382	6	91.8	10.237	0.0052	1555.302	1.9318	144.7964	74.9525	3004.597	0.4746	0.7861
7.392	6	92.77	0.67	93.19	0.0054	3660	147	22.81	389.3		7.392	6	92.8	10.247	0.0054	1552.576	1.9303	141.5014	73.3043	2996.983	0.4754	0.7859
7.402	6	93.77	0.74	93.23	0.0052	3623	146	22.87	390.2		7.402	6	93.8	10.254	0.0052	1552.695	1.9429	140.2624	72.1907	3016.797	0.4681	0.7839
7.412	6	94.77	0.84	93.1	0.0043	3633	144	22.92	390.5		7.412	6	94.8	10.264	0.0043	1557.275	1.9373	137.9527	71.2099	3016.86	0.4714	0.783
7.422	6	95.77	0.9	92.98	0.0039	3655	142	22.98	390.3		7.422	6	95.8	10.27	0.0039	1561.027	1.9279	135.8077	70.4442	3009.465	0.4769	0.7836
7.432	6	96.77	1.31	93.29	0.0036	3697	141	23.03	388.9		7.432	6	96.8	10.311	0.0036	1559.909	1.9047	133.3117	69.9914	2971.141	0.4903	0.7867
7.442	6	97.77	1.46	93.48	0.0027	3559	140	23.08	388.4		7.442	6	97.8	10.326	0.0027	1557.701	1.9538	131.8131	67.4653	3043.424	0.4618	0.7878
7.452	6	98.77	1.51	93.48	0.0022	3736	139	23.12	387.6		7.452	6	98.8	10.331	0.0022	1558.455	1.8868	130.6892	69.2638	2940.546	0.5007	0.7896
7.462	6	99.77	3.09	94.15	0.0013	3750	137	23.19	385.4		7.462	6	99.8	10.489	0.0013	1566.458	1.8535	123.3055	66.5275	2903.354	0.52	0.7945
7.472	6	100.77	3.41	94.18	0.0007	3712	135	23.24	380.1		7.472	6	100.8	10.521	0.0007	1570.533	1.8613	120.4468	64.7113	2923.227	0.5155	0.8069
7.482	6	101.77	3.46	95.44	0.0001	3709	132	23.29	368.7		7.482	6	101.8	10.526	0.0001	1542.271	1.8615	117.6097	63.1806	2870.913	0.5154	0.8344
7.492	6	102.77	3.77	94.36	0.002	3615	129	23.33	345.7		7.492	6	102.8	10.557	0.002	1571.684	1.8901	113.9705	60.2978	2970.683	0.4988	0.8958
7.502	6	103.77	3.57	94.96	0.0004	3662	124	23.38	309.2		7.502	6	103.8	10.537	0.0004	1554.818	1.8765	110.151	58.701	2917.578	0.5067	1.0132
7.512	6	104.77	3.65	94.88	0.0002	3653	117	23.42	257.5		7.512	6	104.8	10.545	0.0002	1557.837	1.8783	103.7066	55.2122	2926.128	0.5056	1.2398
7.522	6	105.77	3.44	94.76	0.0003	3681	106	23.46	199.6		7.522	6	105.8	10.524	0.0003	1557.496	1.8719	94.4957	50.4811	2915.481	0.5093	1.642
7.532	6	106.77	3.44	94.11	0.002	3736	90	23.5	151.6		7.532	6	106.8	10.524	0.002	1572.624	1.8522	80.2322	43.3165	2912.864	0.5207	2.2244
7.542	6	107.77	3.48	95.31	0.0006	4067	71	23.54	119.7		7.542	6	107.8	10.528	0.0006	1545.508	1.7411	63.2253	36.3142	2690.826	0.5852	2.8881
7.552	6	108.77	2.93	999	0	11210	51	23.58	102.5		7.552	6	108.8	10.473	0	107.768	0.6222	46.1039	74.0943	67.0567	1.2342	3.4282
