Geotek MSCL 7.9 - TN336_BB36-41.raw created at 11:29:30 on 1/25/2016.											Geotek MSCL 7.9 - TN336_BB36-41_redo.out created at 14:12:30 on 1/25/2016.											
																						
																						
Core Depth	Section	Sect Depth	CTD 	Tr. Time 	PW Amp   	A Gamma  	Mag Sus  	Temp     	NC Res   		SB DEPTH	SECT NUM	SECT DEPTH	CT	PWAmp	PWVel	Den1	MS1	MS1	Imp	FP	RES
m		cm	mm	µsec		cps	SI x 10^-5	°C	mV		m		cm	cm		m/s	g/cc	SI x 10^-5	x 10^-8 (m^3/kg)			Ohm.m
																						
0.002	1	0.2	6.39	999	0	7068	15	19.02	260.6		0.002	1	0.2	10.819	0	111.2414	1.0215	12.3538	12.0941	113.6306	1.0026	1.2801
0.012	1	1.2	5.98	999	0	5723	18	19.02	311.5		0.012	1	1.2	10.778	0	110.8198	1.275	14.9864	11.7538	141.2983	0.8556	1.0561
0.022	1	2.2	5.77	999	0	5636	21	19.03	399.1		0.022	1	2.2	10.757	0	110.6039	1.2962	17.5819	13.5646	143.3606	0.8433	0.8088
0.032	1	3.2	5.48	132.05	0.0001	5588	22	19.03	484.5		0.032	1	3.2	10.728	0.0001	1015.717	1.3101	18.562	14.168	1330.727	0.8352	0.6562
0.042	1	4.2	4.79	999	0	5754	24	19.04	543.8		0.042	1	4.2	10.659	0.0001	1076.822	1.2826	20.6271	16.0817	140.5729	0.8511	0.5795
0.052	1	5.2	0.09	115.97	0.0001	5698	24	19.04	581.8		0.052	1	5.2	10.189	0.0001	1137.927	1.3544	23.4837	17.3394	1541.154	0.8095	0.5388
0.062	1	6.2	-0.21	116.49	0.0001	5702	25	19.04	601.8		0.062	1	6.2	10.159	0.0001	1128.026	1.3574	24.6713	18.1748	1531.236	0.8077	0.5196
0.072	1	7.2	-0.23	116.4	0.0002	5702	25	19.04	610.2		0.072	1	7.2	10.157	0.0002	1128.932	1.3577	24.6853	18.1815	1532.768	0.8076	0.5119
0.082	1	8.2	-0.29	116	0.0001	5668	25	19.04	617.3		0.082	1	8.2	10.151	0.0001	1133.304	1.3662	24.7275	18.0991	1548.354	0.8027	0.5056
0.092	1	9.2	-0.3	105.92	0.0002	5696	25	19.04	619		0.092	1	9.2	10.15	0.0002	1276.89	1.36	24.7345	18.187	1736.582	0.8063	0.504
0.102	1	10.2	-0.53	105.91	0.0004	5617	25	19.04	620.5		0.102	1	10.2	10.127	0.0004	1274.157	1.3812	24.8971	18.0261	1759.831	0.794	0.5027
0.112	1	11.2	-0.63	105.82	0.001	5449	25	19.04	624.5		0.112	1	11.2	10.117	0.001	1274.342	1.4221	24.9683	17.5574	1812.233	0.7702	0.4992
0.122	1	12.2	-0.64	106.63	0.0008	5554	25	19.04	624.8		0.122	1	12.2	10.116	0.0008	1261.347	1.3973	24.9754	17.8736	1762.523	0.7846	0.499
0.132	1	13.2	-0.64	110.83	0.0007	5680	24	19.05	622.8		0.132	1	13.2	10.116	0.0007	1198.578	1.3682	23.9764	17.5238	1639.918	0.8015	0.5007
0.142	1	14.2	-0.75	110.37	0.0009	5701	23	19.05	620.1		0.142	1	14.2	10.105	0.0009	1203.836	1.3649	23.0497	16.8871	1643.151	0.8034	0.5031
0.152	1	15.2	-0.69	106.95	0.001	5746	24	19.05	620.4		0.152	1	15.2	10.111	0.001	1255.713	1.354	24.0107	17.7337	1700.181	0.8098	0.5028
0.162	1	16.2	-0.69	115.86	0.0008	5797	24	19.06	620		0.162	1	16.2	10.111	0.0008	1130.605	1.3426	24.0107	17.8843	1517.904	0.8164	0.5032
0.172	1	17.2	-0.73	106.17	0.0005	5883	23	19.05	619.7		0.172	1	17.2	10.107	0.0005	1267.494	1.3241	23.0365	17.3973	1678.342	0.8271	0.5034
0.182	1	18.2	-0.64	106.47	0.0005	5963	23	19.05	619.5		0.182	1	18.2	10.116	0.0005	1263.868	1.3057	22.9774	17.5983	1650.18	0.8378	0.5036
0.192	1	19.2	-0.7	115.81	0.0005	5730	23	19.06	621.7		0.192	1	19.2	10.11	0.0005	1131.125	1.3577	23.0168	16.9529	1535.721	0.8076	0.5017
0.202	1	20.2	-0.64	116.01	0.0004	5686	23	19.06	620.6		0.202	1	20.2	10.116	0.0004	1129.27	1.3669	22.9774	16.8104	1543.546	0.8023	0.5027
0.212	1	21.2	-0.64	120.17	0.0004	5691	23	19.07	621.4		0.212	1	21.2	10.116	0.0004	1079.155	1.3657	22.9774	16.8244	1473.819	0.8029	0.5019
0.222	1	22.2	-0.5	119.96	0.0002	5737	23	19.08	623.5		0.222	1	22.2	10.13	0.0002	1083.075	1.3534	22.8858	16.9094	1465.875	0.8101	0.5001
0.232	1	23.2	-0.48	115.57	0.0003	5531	23	19.07	624.7		0.232	1	23.2	10.132	0.0003	1136.639	1.4005	22.8727	16.3316	1591.889	0.7828	0.4991
0.242	1	24.2	-0.49	110.26	0.0004	5490	22	19.08	623.6		0.242	1	24.2	10.131	0.0004	1208.517	1.4103	21.8845	15.5171	1704.431	0.7771	0.5
0.252	1	25.2	-0.48	106.76	0.0007	5444	23	19.07	620.4		0.252	1	25.2	10.132	0.0007	1261.297	1.4212	22.8727	16.0941	1792.538	0.7708	0.5028
0.262	1	26.2	-0.46	107.02	0.0004	5465	22	19.08	617.9		0.262	1	26.2	10.134	0.0004	1257.476	1.4159	21.8658	15.4432	1780.438	0.7739	0.505
0.272	1	27.2	-0.43	115.88	0.0006	5430	23	19.08	617.3		0.272	1	27.2	10.137	0.0006	1133.259	1.4238	22.8401	16.0411	1613.588	0.7692	0.5055
0.282	1	28.2	-0.34	116.03	0.0007	5435	23	19.08	619.9		0.282	1	28.2	10.146	0.0007	1132.366	1.4214	22.7817	16.0278	1609.527	0.7707	0.5033
0.292	1	29.2	-0.35	115.95	0.0006	5447	23	19.08	623.6		0.292	1	29.2	10.145	0.0006	1133.266	1.4186	22.7882	16.0633	1607.705	0.7722	0.5
0.302	1	30.2	-0.34	116.26	0.0006	5394	23	19.08	620.8		0.302	1	30.2	10.146	0.0006	1129.467	1.4313	22.7817	15.9171	1616.575	0.7649	0.5025
0.312	1	31.2	-0.36	116.35	0.0004	5329	23	19.08	606.7		0.312	1	31.2	10.144	0.0004	1128.114	1.4474	22.7947	15.7484	1632.865	0.7556	0.515
0.322	1	32.2	-0.34	115.98	0.0005	5345	23	19.08	595.2		0.322	1	32.2	10.146	0.0005	1132.998	1.4432	22.7817	15.7854	1635.16	0.758	0.5257
0.332	1	33.2	-0.39	116.71	0.0005	5388	24	19.09	580.7		0.332	1	33.2	10.141	0.0005	1123.283	1.4334	23.8061	16.6077	1610.152	0.7637	0.5399
0.342	1	34.2	-0.43	111.68	0.0005	5431	23	19.09	567.4		0.342	1	34.2	10.137	0.0005	1189.091	1.4236	22.8401	16.0439	1692.798	0.7694	0.5536
0.352	1	35.2	-0.39	116.55	0.0003	5405	24	19.09	557		0.352	1	35.2	10.141	0.0003	1125.277	1.4293	23.8061	16.6556	1608.375	0.7661	0.5648
0.362	1	36.2	-0.33	120.14	0.0003	5357	24	19.09	550.3		0.362	1	36.2	10.147	0.0003	1082.809	1.4401	23.7654	16.5022	1559.391	0.7598	0.5722
0.372	1	37.2	-0.34	115.99	0.0003	5319	25	19.1	544.6		0.372	1	37.2	10.146	0.0003	1132.872	1.4496	24.7627	17.0824	1642.219	0.7543	0.5786
0.382	1	38.2	-0.34	115.86	0.0008	5058	24	19.09	536.2		0.382	1	38.2	10.146	0.0008	1134.519	1.516	23.7722	15.6805	1719.97	0.7158	0.5884
0.392	1	39.2	-0.39	116.63	0.0007	5051	24	19.1	529		0.392	1	39.2	10.141	0.0007	1124.279	1.5186	23.8061	15.6761	1707.358	0.7143	0.597
0.402	1	40.2	-0.33	119.95	0.0005	5211	24	19.1	522.3		0.402	1	40.2	10.147	0.0005	1085.009	1.4764	23.7654	16.0964	1601.952	0.7387	0.6052
0.412	1	41.2	-0.3	116.13	0.0004	5263	24	19.1	517.6		0.412	1	41.2	10.15	0.0004	1131.55	1.4629	23.7452	16.2312	1655.382	0.7466	0.6112
0.422	1	42.2	-0.21	116.05	0.0004	5329	24	19.1	512.7		0.422	1	42.2	10.159	0.0004	1133.564	1.4453	23.6845	16.3873	1638.331	0.7568	0.6175
0.432	1	43.2	-0.21	116.42	0.0005	5394	24	19.11	513.7		0.432	1	43.2	10.159	0.0005	1128.903	1.4294	23.6845	16.569	1613.7	0.766	0.6161
0.442	1	44.2	-0.16	116.5	0.0007	5363	24	19.1	511		0.442	1	44.2	10.164	0.0007	1128.456	1.4363	23.6508	16.4669	1620.76	0.762	0.6197
0.452	1	45.2	-0.12	116.54	0.0007	5232	24	19.12	509.2		0.452	1	45.2	10.168	0.0007	1128.399	1.4681	23.624	16.0915	1656.605	0.7436	0.622
0.462	1	46.2	-0.14	116.76	0.0006	5357	24	19.11	509.1		0.462	1	46.2	10.166	0.0006	1125.429	1.4374	23.6374	16.4441	1617.741	0.7613	0.6221
0.472	1	47.2	-0.1	116.81	0.0005	5361	24	19.11	510.7		0.472	1	47.2	10.17	0.0005	1125.249	1.4359	23.6106	16.443	1615.749	0.7622	0.62
0.482	1	48.2	-0.1	116.8	0.0007	5279	24	19.12	513.4		0.482	1	48.2	10.17	0.0007	1125.373	1.4561	23.6106	16.2152	1638.628	0.7505	0.6166
0.492	1	49.2	-0.02	116.98	0.0005	5331	24	19.12	515.6		0.492	1	49.2	10.178	0.0005	1124.02	1.4421	23.557	16.3352	1620.953	0.7586	0.6137
0.502	1	50.2	-0.19	116.63	0.0004	5410	25	19.13	519.6		0.502	1	50.2	10.161	0.0004	1126.497	1.4253	24.6573	17.2998	1605.59	0.7684	0.6086
0.512	1	51.2	-0.14	116.62	0.0004	5348	24	19.13	522.9		0.512	1	51.2	10.166	0.0004	1127.176	1.4396	23.6374	16.419	1622.73	0.7601	0.6044
0.522	1	52.2	-0.09	116.59	0.0005	5332	24	19.13	525.2		0.522	1	52.2	10.171	0.0005	1128.106	1.4429	23.6039	16.3592	1627.688	0.7582	0.6016
0.532	1	53.2	-0.04	116.41	0.0004	5348	24	19.13	526.5		0.532	1	53.2	10.176	0.0004	1130.918	1.4382	23.5704	16.3885	1626.517	0.7609	0.6001
0.542	1	54.2	-0.13	116.26	0.0008	5338	24	19.16	526		0.542	1	54.2	10.167	0.0008	1131.804	1.4419	23.6307	16.388	1632.003	0.7587	0.6006
0.552	1	55.2	-0.1	111.3	0.0006	5371	24	19.17	525.8		0.552	1	55.2	10.17	0.0006	1198.303	1.4335	23.6106	16.4709	1717.732	0.7636	0.6009
0.562	1	56.2	-0.15	111.02	0.0008	5379	23	19.16	523		0.562	1	56.2	10.165	0.0008	1201.679	1.4322	22.6589	15.8207	1721.082	0.7644	0.6044
0.572	1	57.2	-0.16	116.46	0.0006	5364	24	19.17	519.4		0.572	1	57.2	10.164	0.0006	1128.957	1.436	23.6508	16.4697	1621.205	0.7622	0.6089
0.582	1	58.2	-0.16	116.38	0.0008	5395	23	19.18	516.4		0.582	1	58.2	10.164	0.0008	1129.961	1.4285	22.6654	15.8666	1614.145	0.7665	0.6126
0.592	1	59.2	-0.26	116.27	0.0008	5345	23	19.17	514.8		0.592	1	59.2	10.154	0.0008	1130.232	1.4421	22.7299	15.7619	1629.882	0.7587	0.6148
0.602	1	60.2	-0.25	115.98	0.0012	5263	24	19.18	515.6		0.602	1	60.2	10.155	0.0012	1134.003	1.4622	23.7114	16.2161	1658.154	0.747	0.6137
0.612	1	61.2	-0.29	110.21	0.0012	5322	24	19.18	515.5		0.612	1	61.2	10.151	0.0012	1211.626	1.4482	23.7384	16.3922	1754.621	0.7551	0.6139
0.622	1	62.2	-0.27	107.13	0.0009	5298	24	19.18	518.3		0.622	1	62.2	10.153	0.0009	1258.116	1.4538	23.7249	16.3193	1829.045	0.7519	0.6103
0.632	1	63.2	-0.28	115.77	0.001	5200	24	19.18	519.4		0.632	1	63.2	10.152	0.001	1136.333	1.4785	23.7316	16.0512	1680.069	0.7375	0.6089
0.642	1	64.2	-0.3	107.82	0.0014	5240	24	19.18	518.9		0.642	1	64.2	10.15	0.0014	1247.082	1.4687	23.7452	16.1675	1831.583	0.7432	0.6095
0.652	1	65.2	-0.3	107.01	0.0012	5222	24	19.19	516.9		0.652	1	65.2	10.15	0.0012	1259.618	1.4732	23.7452	16.1178	1855.702	0.7406	0.612
0.662	1	66.2	-0.3	115.97	0.001	5246	24	19.19	513.4		0.662	1	66.2	10.15	0.001	1133.572	1.4672	23.7452	16.1841	1663.164	0.7441	0.6166
0.672	1	67.2	-0.3	107.19	0.0007	5189	24	19.19	510.5		0.672	1	67.2	10.15	0.0007	1256.81	1.4816	23.7452	16.0269	1862.071	0.7357	0.6203
0.682	1	68.2	-0.24	107.5	0.0006	5185	24	19.19	508.8		0.682	1	68.2	10.156	0.0006	1252.745	1.4817	23.7047	15.998	1856.225	0.7357	0.6225
0.692	1	69.2	-0.21	116.16	0.001	5237	24	19.2	506.9		0.692	1	69.2	10.159	0.001	1132.174	1.4681	23.6845	16.1322	1662.198	0.7435	0.6251
0.702	1	70.2	-0.2	116.26	0.0015	5152	24	19.2	506.6		0.702	1	70.2	10.16	0.0015	1131.025	1.4896	23.6777	15.8957	1684.74	0.7311	0.6255
0.712	1	71.2	-0.15	116.39	0.0015	5147	23	19.2	505.9		0.712	1	71.2	10.165	0.0015	1129.947	1.4901	22.6589	15.2061	1683.754	0.7308	0.6264
0.722	1	72.2	-0.15	116.51	0.0013	5124	23	19.2	502.1		0.722	1	72.2	10.165	0.0013	1128.441	1.496	22.6589	15.146	1688.188	0.7274	0.6315
0.732	1	73.2	-0.09	116.55	0.0013	5124	23	19.21	501.3		0.732	1	73.2	10.171	0.0013	1128.606	1.4952	22.6204	15.1291	1687.439	0.7279	0.6326
0.742	1	74.2	-0.07	111.05	0.0009	5217	23	19.21	482.9		0.742	1	74.2	10.173	0.0009	1202.198	1.4712	22.6076	15.3672	1768.62	0.7418	0.6586
0.752	1	75.2	0.01	110.98	0.0008	5111	23	19.22	476		0.752	1	75.2	10.181	0.0008	1204.14	1.497	22.5563	15.0673	1802.643	0.7268	0.669
0.762	1	76.2	0.03	110.74	0.0008	5084	23	19.21	476.2		0.762	1	76.2	10.183	0.0008	1207.805	1.5037	22.5435	14.9916	1816.227	0.7229	0.6686
0.772	1	77.2	0.11	116.78	0.0012	5199	22	19.22	474.5		0.772	1	77.2	10.191	0.0012	1127.947	1.4731	21.5145	14.605	1661.573	0.7407	0.6712
0.782	1	78.2	0.15	117.06	0.0011	5121	23	19.21	472.6		0.782	1	78.2	10.195	0.0011	1124.903	1.4924	22.467	15.0542	1678.811	0.7295	0.674
0.792	1	79.2	0.26	111.2	0.0011	5156	23	19.22	473.4		0.792	1	79.2	10.206	0.0011	1203.964	1.4818	22.3972	15.1145	1784.076	0.7356	0.6729
0.802	1	80.2	0.33	111.55	0.001	5218	22	19.22	475.1		0.802	1	80.2	10.213	0.001	1199.836	1.4651	21.3811	14.5932	1757.929	0.7453	0.6703
0.812	1	81.2	0.37	111.57	0.0009	5234	23	19.22	478.7		0.812	1	81.2	10.217	0.0009	1200.024	1.4606	22.3277	15.2871	1752.709	0.7479	0.6649
0.822	1	82.2	0.43	111.23	0.0008	5189	23	19.23	481.2		0.822	1	82.2	10.223	0.0008	1205.542	1.471	22.2899	15.1529	1773.359	0.7419	0.6611
0.832	1	83.2	0.84	111.62	0.0013	5246	22	19.22	484.1		0.832	1	83.2	10.264	0.0013	1204.836	1.4509	21.0761	14.5263	1748.089	0.7535	0.6568
0.842	1	84.2	0.89	111.71	0.0006	5214	22	19.23	486.8		0.842	1	84.2	10.269	0.0006	1204.151	1.4582	21.0465	14.4337	1755.834	0.7493	0.653
0.852	1	85.2	1.97	118.14	0.0002	5133	23	19.24	490.1		0.852	1	85.2	10.377	0.0002	1131.501	1.4632	21.35	14.5913	1655.613	0.7464	0.6482
0.862	1	86.2	2.61	118.45	0.0003	5100	23	19.23	490.7		0.862	1	86.2	10.441	0.0003	1134.645	1.4625	20.9757	14.342	1659.457	0.7468	0.6473
0.872	1	87.2	2.63	999	0	5128	23	19.23	490.5		0.872	1	87.2	10.443	0.00025	1135.0815	1.4552	20.9641	14.4063	156.2532	0.751	0.6476
0.882	1	88.2	3.19	118.89	0.0002	5038	23	19.23	481.6		0.882	1	88.2	10.499	0.0002	1135.518	1.4702	20.6443	14.0423	1669.386	0.7424	0.6605
0.892	1	89.2	3.48	129.64	0.0001	5119	24	19.24	466.2		0.892	1	89.2	10.528	0.0001	1020.056	1.4457	21.3719	14.7831	1474.694	0.7566	0.684
0.902	1	90.2	3.17	119.19	0.0001	5117	23	19.24	434.1		0.902	1	90.2	10.497	0.0001	1131.63	1.4505	20.6556	14.2407	1641.394	0.7538	0.7387
0.912	1	91.2	2.89	109.34	0.0001	5043	23	19.24	371.6		0.912	1	91.2	10.469	0.0001	1262.695	1.4731	20.8148	14.13	1860.06	0.7407	0.8733
0.922	1	92.2	3.15	999	0	5063	23	19.24	283.5		0.922	1	92.2	10.495	0	107.91	1.4644	20.6669	14.1134	158.0182	0.7457	1.169
0.932	1	93.2	4.77	999	0	5196	23	19.25	205.6		0.932	1	93.2	10.657	0	109.5757	1.4094	19.7783	14.0331	154.4365	0.7776	1.6527
0.942	2	0.09	5.71	999	0	7384	22	19.24	178.3		0.942	2	0.1	10.751	0	110.5422	0.9776	18.4486	18.872	108.062	1.0281	1.9274
0.952	2	1.09	6.05	999	0	5472	22	19.24	206.3		0.952	2	1.1	10.785	0	110.8918	1.3288	18.2827	13.7583	147.3583	0.8243	1.6466
0.962	2	2.09	6.24	999	0	4966	22	19.25	272.3		0.962	2	2.1	10.804	0	111.0871	1.4467	18.191	12.5744	160.706	0.756	1.2209
0.972	2	3.09	5.94	999	0	4970	22	19.24	345.9		0.972	2	3.1	10.774	0	110.7787	1.4497	18.3362	12.6484	160.5938	0.7542	0.9434
0.982	2	4.09	5.45	999	0	5006	23	19.25	400.3		0.982	2	4.1	10.725	0	110.2748	1.4472	19.4213	13.4199	159.5897	0.7557	0.8062
0.992	2	5.09	1.73	999	0	5072	22	19.25	434.9		0.992	2	5.1	10.353	0	106.4499	1.4821	20.5583	13.8708	157.7721	0.7354	0.7373
1.002	2	6.09	0.29	130.81	0.0001	5126	22	19.24	459		1.002	2	6.1	10.209	0.0001	978.0609	1.4891	21.4053	14.3749	1456.405	0.7314	0.6956
1.012	2	7.09	-0.24	155.1	0	5080	22	19.25	472.5		1.012	2	7.1	10.156	0.0001	940.49195	1.5088	21.7293	14.4018	1190.892	0.72	0.6742
1.022	2	8.09	-0.79	138.3	0.0001	5183	22	19.25	480		1.022	2	8.1	10.101	0.0001	902.923	1.4903	22.0728	14.8109	1345.632	0.7307	0.6629
1.032	2	9.09	-0.8	130.46	0.0001	5106	22	19.24	484.8		1.032	2	9.1	10.1	0.0001	970.8737	1.5103	22.0791	14.6186	1466.356	0.7191	0.6558
1.042	2	10.09	-0.8	120.53	0.0001	5154	22	19.24	488.1		1.042	2	10.1	10.1	0.0001	1073.326	1.4979	22.0791	14.74	1607.738	0.7263	0.6511
1.052	2	11.09	-0.8	119.75	0.0001	5047	22	19.25	488.3		1.052	2	11.1	10.1	0.0001	1082.297	1.5258	22.0791	14.4701	1651.42	0.7101	0.6507
1.062	2	12.09	-0.83	119.53	0.0001	5014	21	19.24	488.2		1.062	2	12.1	10.097	0.0001	1084.533	1.5351	21.0936	13.7411	1664.837	0.7047	0.6509
1.072	2	13.09	-0.85	120.09	0.0001	5064	21	19.24	488.8		1.072	2	13.1	10.095	0.0001	1077.835	1.5221	21.1057	13.8661	1640.584	0.7122	0.65
1.082	2	14.09	-0.85	121.5	0.0001	4983	21	19.25	488.2		1.082	2	14.1	10.095	0.0001	1061.849	1.5437	21.1057	13.6723	1639.161	0.6997	0.651
1.092	2	15.09	-0.85	143.98	0.0001	5034	22	19.26	488.8		1.092	2	15.1	10.095	0.0001	858.7836	1.5301	22.1107	14.451	1313.982	0.7076	0.6501
1.102	2	16.09	-0.8	130.71	0.0001	5026	22	19.25	487.7		1.102	2	16.1	10.1	0.0001	968.5461	1.5314	22.0791	14.4174	1483.25	0.7068	0.6516
1.112	2	17.09	-0.75	119.16	0.0001	5076	22	19.25	489.6		1.112	2	17.1	10.105	0.0001	1089.723	1.5174	22.0476	14.5294	1653.599	0.7149	0.649
1.122	2	18.09	-0.74	119.46	0.0002	5054	22	19.25	489.4		1.122	2	18.1	10.106	0.0002	1086.316	1.5231	22.0413	14.4714	1654.559	0.7117	0.6492
1.132	2	19.09	-0.68	121.36	0.0001	5049	21	19.25	488.9		1.132	2	19.1	10.112	0.0001	1065.206	1.5235	21.0033	13.7862	1622.85	0.7114	0.65
1.142	2	20.09	-0.65	121.35	0.0001	5054	22	19.25	488.1		1.142	2	20.1	10.115	0.0001	1065.634	1.5217	21.9846	14.4471	1621.614	0.7125	0.6511
1.152	2	21.09	-0.54	131.36	0.0001	4991	22	19.25	488.9		1.152	2	21.1	10.126	0.0001	965.0242	1.5368	21.9157	14.2605	1483.064	0.7037	0.6499
1.162	2	22.09	-0.58	131.16	0.0001	4924	22	19.25	488.4		1.162	2	22.1	10.122	0.0001	966.4852	1.5555	21.9407	14.1051	1503.387	0.6929	0.6507
1.172	2	23.09	-0.53	119.4	0.0001	4852	22	19.25	489.5		1.172	2	23.1	10.127	0.0001	1089.276	1.5745	21.9095	13.9148	1715.109	0.6818	0.649
1.182	2	24.09	-0.45	124.35	0.0001	4826	22	19.25	486.1		1.182	2	24.1	10.135	0.0001	1035.029	1.5805	21.8596	13.8305	1635.893	0.6783	0.6539
1.192	2	25.09	-0.45	143.39	0.0001	4845	22	19.25	487.6		1.192	2	25.1	10.135	0.0001	866.5356	1.5752	21.8596	13.877	1365.001	0.6814	0.6517
1.202	2	26.09	-0.39	128.2	0.0001	4893	23	19.25	489.4		1.202	2	26.1	10.141	0.0001	996.4626	1.5611	22.8141	14.6144	1555.547	0.6896	0.6492
1.212	2	27.09	-0.35	122.21	0.0001	4909	22	19.26	487.4		1.212	2	27.1	10.145	0.0001	1059.198	1.5561	21.7974	14.0079	1648.195	0.6925	0.652
1.222	2	28.09	-0.35	128.08	0.0001	4945	23	19.26	485.7		1.222	2	28.1	10.145	0.0001	998.0324	1.5463	22.7882	14.7372	1543.259	0.6982	0.6545
1.232	2	29.09	-0.31	119.79	0.0001	4877	23	19.25	482.7		1.232	2	29.1	10.149	0.0001	1087.082	1.5642	22.7622	14.5517	1700.446	0.6878	0.659
1.242	2	30.09	-0.29	120.99	0.0001	4832	23	19.26	479.1		1.242	2	30.1	10.151	0.0001	1073.498	1.5764	22.7493	14.4315	1692.227	0.6808	0.6643
1.252	2	31.09	-0.29	121.28	0.0001	4780	23	19.25	477.9		1.252	2	31.1	10.151	0.0001	1070.216	1.5909	22.7493	14.2993	1702.643	0.6723	0.666
1.262	2	32.09	-0.29	123.22	0.0001	4793	24	19.26	470.7		1.262	2	32.1	10.151	0.0001	1048.765	1.5873	23.7384	14.9555	1664.677	0.6744	0.677
1.272	2	33.09	-0.34	123.54	0.0001	4865	23	19.26	468.8		1.272	2	33.1	10.146	0.0001	1044.795	1.568	22.7817	14.5292	1638.236	0.6856	0.6799
1.282	2	34.09	-0.27	123.71	0.0001	4828	23	19.27	468.5		1.282	2	34.1	10.153	0.0001	1043.688	1.5772	22.7364	14.4159	1646.074	0.6803	0.6805
1.292	2	35.09	-0.28	123.38	0.0001	4761	24	19.29	467.2		1.292	2	35.1	10.152	0.0001	1047.138	1.5961	23.7316	14.8681	1671.387	0.6693	0.6824
1.302	2	36.09	-0.3	123.39	0.0001	4643	23	19.29	464		1.302	2	36.1	10.15	0.0001	1046.823	1.6305	22.7558	13.9567	1706.797	0.6494	0.6876
1.312	2	37.09	-0.24	120.11	0.0001	4688	23	19.3	458.7		1.312	2	37.1	10.156	0.0001	1084.116	1.6164	22.717	14.054	1752.373	0.6575	0.6962
1.322	2	38.09	-0.29	118.73	0.0002	4913	22	19.3	454.7		1.322	2	38.1	10.151	0.0002	1099.783	1.5541	21.7602	14.0021	1709.139	0.6937	0.7028
1.332	2	39.09	-0.23	122.66	0.0001	4938	22	19.31	452		1.332	2	39.1	10.157	0.0001	1055.492	1.5464	21.7231	14.0478	1632.177	0.6982	0.7072
1.342	2	40.09	-0.28	123.29	0.0001	4917	23	19.31	451.9		1.342	2	40.1	10.152	0.0001	1048.111	1.5528	22.7428	14.6461	1627.534	0.6944	0.7074
1.352	2	41.09	-0.23	124.32	0.0002	4835	22	19.31	452.7		1.352	2	41.1	10.157	0.0002	1037.593	1.5746	21.7231	13.7959	1633.797	0.6818	0.706
1.362	2	42.09	-0.34	123.98	0.0001	4851	22	19.32	451.9		1.362	2	42.1	10.146	0.0001	1040.082	1.5719	21.7912	13.8632	1634.872	0.6834	0.7074
1.372	2	43.09	-0.33	123.79	0.0001	4916	23	19.31	450		1.372	2	43.1	10.147	0.0001	1042.214	1.5539	22.7752	14.6571	1619.459	0.6938	0.7107
1.382	2	44.09	-0.39	124.25	0.0001	4789	23	19.31	449.7		1.382	2	44.1	10.141	0.0001	1036.7	1.59	22.8141	14.3488	1648.316	0.6729	0.7112
1.392	2	45.09	-0.39	125.25	0.0001	4896	23	19.32	447.5		1.392	2	45.1	10.141	0.0001	1026.209	1.5602	22.8141	14.6221	1601.14	0.6901	0.7149
1.402	2	46.09	-0.39	125.13	0.0002	4899	23	19.32	447.7		1.402	2	46.1	10.141	0.0002	1027.457	1.5594	22.8141	14.6298	1602.242	0.6906	0.7146
1.412	2	47.09	-0.39	124.99	0.0001	4903	24	19.32	447.8		1.412	2	47.1	10.141	0.0001	1028.916	1.5583	23.8061	15.2766	1603.393	0.6912	0.7143
1.422	2	48.09	-0.39	124.94	0.0002	4959	24	19.33	449.1		1.422	2	48.1	10.141	0.0002	1029.439	1.5431	23.8061	15.4271	1588.559	0.7	0.7122
1.432	2	49.09	-0.33	124.52	0.0001	4964	24	19.32	450.6		1.432	2	49.1	10.147	0.0001	1034.458	1.5409	23.7654	15.4234	1593.969	0.7013	0.7097
1.442	2	50.09	-0.29	121.79	0.0001	4996	24	19.33	454.3		1.442	2	50.1	10.151	0.0001	1064.492	1.5317	23.7384	15.4981	1630.479	0.7067	0.7034
1.452	2	51.09	-0.24	120.8	0.0001	5044	24	19.33	455.9		1.452	2	51.1	10.156	0.0001	1076.189	1.5182	23.7047	15.6134	1633.896	0.7145	0.7008
1.462	2	52.09	-0.19	131.74	0.0001	5030	24	19.34	456.9		1.462	2	52.1	10.161	0.0001	964.8656	1.5212	23.671	15.5611	1467.723	0.7128	0.699
1.472	2	53.09	-0.14	131.33	0.0001	4982	24	19.35	455.7		1.472	2	53.1	10.166	0.0001	969.1133	1.5332	23.6374	15.4173	1485.817	0.7058	0.7011
1.482	2	54.09	-0.09	131.25	0.0001	4966	25	19.36	442.5		1.482	2	54.1	10.171	0.0001	970.33	1.5367	24.5874	16.0001	1491.107	0.7038	0.7237
1.492	2	55.09	-0.05	131.58	0.0001	4942	25	19.36	428.5		1.492	2	55.1	10.175	0.0001	967.6652	1.5426	24.5595	15.9213	1492.673	0.7004	0.7492
1.502	2	56.09	0.05	129.07	0.0001	4888	24	19.36	426.1		1.502	2	56.1	10.185	0.0001	992.3031	1.5557	23.5103	15.1125	1543.716	0.6928	0.7537
1.512	2	57.09	0.11	129.17	0.0002	4835	24	19.36	426.6		1.512	2	57.1	10.191	0.0002	991.9214	1.5693	23.4704	14.9555	1556.671	0.6848	0.7527
1.522	2	58.09	0.11	118.2	0.0002	4842	24	19.36	425		1.522	2	58.1	10.191	0.0002	1110.494	1.5674	23.4704	14.974	1740.601	0.686	0.7558
1.532	2	59.09	0.15	119.28	0.0002	4884	24	19.37	425.2		1.532	2	59.1	10.195	0.0002	1098.008	1.5553	23.4438	15.0739	1707.684	0.693	0.7553
1.542	2	60.09	0.2	119.68	0.0001	4845	24	19.37	424.3		1.542	2	60.1	10.2	0.0001	1093.834	1.5652	23.4107	14.957	1712.07	0.6872	0.7572
1.552	2	61.09	0.38	132.03	0.0001	4854	23	19.37	422.1		1.552	2	61.1	10.218	0.0001	967.6136	1.56	22.3214	14.3089	1509.446	0.6903	0.7614
1.562	2	62.09	0.58	132.47	0.0001	4920	23	19.37	423.1		1.562	2	62.1	10.238	0.0001	965.4847	1.539	22.1959	14.4225	1485.855	0.7025	0.7593
1.572	2	63.09	0.73	133.54	0.0001	4871	23	19.37	423.8		1.572	2	63.1	10.253	0.0001	957.2403	1.55	22.1023	14.2596	1483.72	0.6961	0.7582
1.582	2	64.09	0.58	144.82	0	5044	23	19.38	421.6		1.582	2	64.1	10.238	0	864.7689	1.5061	22.1959	14.7377	1302.397	0.7215	0.7624
1.592	2	65.09	0.92	154.8	0	4961	22	19.38	418.3		1.592	2	65.1	10.272	0	800.1869	1.5229	21.0288	13.8082	1218.62	0.7118	0.7688
1.602	2	66.09	3.9	999	0	5017	22	19.39	415.5		1.602	2	66.1	10.57	0	108.6811	1.4656	19.3683	13.2151	159.2846	0.745	0.7745
1.612	2	67.09	3.38	999	0	4980	21	19.38	412.4		1.612	2	67.1	10.518	0	108.1465	1.4824	18.7515	12.6496	160.314	0.7353	0.7808
1.622	2	68.09	3.33	999	0	4950	21	19.39	405.9		1.622	2	68.1	10.513	0	108.095	1.4909	18.7772	12.5948	161.1557	0.7304	0.7942
1.632	2	69.09	3.02	999	0	4858	21	19.39	392.7		1.632	2	69.1	10.482	0	107.7763	1.5196	18.9371	12.4619	163.7777	0.7137	0.8229
1.642	2	70.09	3.05	999	0	4952	22	19.4	366.5		1.642	2	70.1	10.485	0	107.8071	1.4943	19.8226	13.2652	161.0994	0.7283	0.8866
1.652	2	71.09	2.89	999	0	4962	21	19.39	324.1		1.652	2	71.1	10.469	0	107.6426	1.494	19.0048	12.7207	160.8182	0.7285	1.0121
1.662	2	72.09	1.86	999	0	5368	21	19.4	267.1		1.662	2	72.1	10.366	0	106.5836	1.4071	19.5531	13.8962	149.9718	0.779	1.2467
1.672	2	73.09	5.09	999	0	5293	22	19.4	219.3		1.672	2	73.1	10.689	0	109.9047	1.3821	18.7566	13.5713	151.8963	0.7935	1.5418
1.682	2	74.09	5.85	999	0	5921	23	19.4	193.7		1.682	2	74.1	10.765	0	110.6861	1.2354	19.2155	15.5535	136.7468	0.8785	1.7623
1.692	3	0.82	5.86	999	0	5395	24	19.4	201.1		1.692	3	0.8	10.766	0	110.6964	1.3486	20.0456	14.8638	149.2873	0.8129	1.6926
1.702	3	1.82	5.63	999	0	4573	24	19.4	239.8		1.702	3	1.8	10.743	0	110.4599	1.56	20.1686	12.9286	172.3174	0.6903	1.4002
1.712	3	2.82	5.76	999	0	4670	25	19.41	300.2		1.712	3	2.8	10.756	0	110.5936	1.5312	20.9364	13.6736	169.3367	0.707	1.0991
1.722	3	3.82	5.47	999	0	4731	25	19.41	364		1.722	3	3.8	10.727	0	110.2954	1.5187	21.0988	13.8929	167.5023	0.7142	0.8931
1.732	3	4.82	4.69	999	0	4785	26	19.41	408.5		1.732	3	4.8	10.649	0	109.4934	1.5152	22.4062	14.7877	165.9033	0.7162	0.7887
1.742	3	5.82	1.41	999	0	4744	26	19.42	431.5		1.742	3	5.8	10.321	0	106.1209	1.5748	24.5138	15.5666	167.1153	0.6817	0.7436
1.752	3	6.82	0.77	999	0	4815	26	19.42	443.6		1.752	3	6.8	10.257	0	105.4628	1.5648	24.9572	15.9494	165.0248	0.6875	0.7217
1.762	3	7.82	-0.26	999	0	4853	26	19.42	452.1		1.762	3	7.8	10.154	0	104.4038	1.5701	25.6947	16.3652	163.922	0.6844	0.7072
1.772	3	8.82	-0.6	999	0	4781	26	19.42	456.9		1.772	3	8.8	10.12	0	104.0542	1.5955	25.9448	16.261	166.021	0.6696	0.699
1.782	3	9.82	-0.6	119.22	0.0003	4851	26	19.43	460.4		1.782	3	9.8	10.12	0.0003	1090.635	1.5759	25.9448	16.4634	1718.739	0.681	0.6933
1.792	3	10.82	-0.56	115.99	0.0003	4808	26	19.43	462.1		1.792	3	10.8	10.124	0.0003	1130.415	1.5873	25.9152	16.3267	1794.294	0.6744	0.6905
1.802	3	11.82	-0.49	115.27	0.0003	4810	25	19.44	462.8		1.802	3	11.8	10.131	0.0003	1140.365	1.5856	24.8687	15.6838	1808.196	0.6754	0.6895
1.812	3	12.82	-0.44	115.87	0.0004	4772	26	19.44	461.9		1.812	3	12.8	10.136	0.0004	1133.274	1.5956	25.8267	16.1867	1808.195	0.6696	0.691
1.822	3	13.82	-0.4	115.19	0.0003	4717	26	19.43	463.6		1.822	3	13.8	10.14	0.0003	1142.406	1.6106	25.7973	16.0172	1839.957	0.6609	0.6882
1.832	3	14.82	-0.35	115.16	0.0004	4642	27	19.43	466.6		1.832	3	14.8	10.145	0.0004	1143.356	1.6316	26.7513	16.3963	1865.443	0.6488	0.6834
1.842	3	15.82	-0.34	119.33	0.0002	4640	27	19.44	467.5		1.842	3	15.8	10.146	0.0002	1092.142	1.632	26.7437	16.3873	1782.348	0.6485	0.682
1.852	3	16.82	-0.3	115.53	0.0001	4746	27	19.45	467.9		1.852	3	16.8	10.15	0.0001	1139.169	1.6007	26.7133	16.6883	1823.496	0.6666	0.6814
1.862	3	17.82	-0.25	119.54	0.0002	4782	27	19.45	468.3		1.862	3	17.8	10.155	0.0002	1090.645	1.5897	26.6753	16.7797	1733.846	0.673	0.6808
1.872	3	18.82	-0.2	119.94	0.0001	4747	27	19.46	466.7		1.872	3	18.8	10.16	0.0001	1086.515	1.5989	26.6374	16.6602	1737.19	0.6677	0.6832
1.882	3	19.82	-0.14	123.99	0.0001	4783	26	19.45	465.3		1.882	3	19.8	10.166	0.0001	1042.025	1.5877	25.6072	16.1281	1654.467	0.6742	0.6854
1.892	3	20.82	-0.15	119.59	0.0002	4745	27	19.46	464.5		1.892	3	20.8	10.165	0.0002	1091.134	1.5986	26.5996	16.6389	1744.337	0.6678	0.6867
1.902	3	21.82	-0.09	124.03	0.0002	4660	26	19.47	462.2		1.902	3	21.8	10.171	0.0002	1042.111	1.6221	25.5709	15.7637	1690.442	0.6542	0.6904
1.912	3	22.82	-0.05	122.37	0.0002	4628	26	19.47	462.7		1.912	3	22.8	10.175	0.0002	1060.559	1.6308	25.5419	15.6618	1729.597	0.6492	0.6896
1.922	3	23.82	0	119.25	0.0002	4605	26	19.47	461.6		1.922	3	23.8	10.18	0.0002	1096.746	1.6368	25.5057	15.5827	1795.15	0.6457	0.6914
1.932	3	24.82	0.05	119.05	0.0001	4617	26	19.47	461.1		1.932	3	24.8	10.185	0.0001	1099.654	1.6325	25.4695	15.6019	1795.143	0.6482	0.6922
1.942	3	25.82	0.06	119.27	0.0002	4602	26	19.47	457.7		1.942	3	25.8	10.186	0.0002	1097.156	1.6367	25.4623	15.557	1795.734	0.6458	0.6978
1.952	3	26.82	0.14	120.42	0.0002	4619	25	19.47	452.9		1.952	3	26.8	10.194	0.0002	1084.583	1.6304	24.4276	14.9823	1768.341	0.6494	0.7057
1.962	3	27.82	0.17	121.31	0.0001	4673	25	19.47	450.4		1.962	3	27.8	10.197	0.0001	1074.726	1.6142	24.4069	15.1198	1734.859	0.6588	0.7099
1.972	3	28.82	0.2	122.62	0.0001	4690	25	19.48	446.2		1.972	3	28.8	10.2	0.0001	1060.401	1.6089	24.3861	15.1574	1706.036	0.6619	0.7171
1.982	3	29.82	0.15	120.92	0.0001	4637	25	19.47	444.2		1.982	3	29.8	10.195	0.0001	1078.95	1.625	24.4207	15.0281	1753.301	0.6525	0.7206
1.992	3	30.82	0.2	122.14	0.0002	4605	26	19.48	442.6		1.992	3	30.8	10.2	0.0002	1065.719	1.6336	25.3616	15.5251	1740.945	0.6476	0.7235
2.002	3	31.82	0.22	123.09	0.0002	4478	25	19.49	441.1		2.002	3	31.8	10.202	0.0002	1055.452	1.6713	24.3723	14.5828	1763.986	0.6257	0.726
2.012	3	32.82	0.2	122.5	0.0002	4467	25	19.49	439		2.012	3	32.8	10.2	0.0002	1061.726	1.675	24.3861	14.5589	1778.387	0.6236	0.7299
2.022	3	33.82	0.22	122.68	0.0001	4477	25	19.49	437.7		2.022	3	33.8	10.202	0.0001	1059.948	1.6716	24.3723	14.5801	1771.824	0.6255	0.7321
2.032	3	34.82	0.22	122.13	0.0002	4565	25	19.49	434.6		2.032	3	34.8	10.202	0.0002	1066.04	1.6451	24.3723	14.8151	1753.744	0.6409	0.7378
2.042	3	35.82	0.26	122.31	0.0001	4645	25	19.49	432.4		2.042	3	35.8	10.206	0.0001	1064.456	1.6209	24.3448	15.0191	1725.403	0.6549	0.7418
2.052	3	36.82	0.28	123.55	0.0001	4554	25	19.49	429.7		2.052	3	36.8	10.208	0.0001	1051.071	1.6474	24.331	14.7693	1731.546	0.6396	0.7468
2.062	3	37.82	0.27	122.55	0.0001	4478	24	19.5	426.6		2.062	3	37.8	10.207	0.0001	1061.902	1.6705	23.3644	13.9866	1773.896	0.6262	0.7528
2.072	3	38.82	0.28	120.56	0.0001	4512	23	19.49	422.3		2.072	3	38.8	10.208	0.0001	1084.458	1.66	22.3846	13.4846	1800.215	0.6322	0.761
2.082	3	39.82	0.26	122.09	0.0001	4505	23	19.49	418.6		2.082	3	39.8	10.206	0.0001	1066.904	1.6625	22.3972	13.4724	1773.679	0.6308	0.7683
2.092	3	40.82	0.26	130.22	0.0001	4634	23	19.5	413.2		2.092	3	40.8	10.206	0.0001	983.3317	1.6241	22.3972	13.7903	1597.058	0.6531	0.779
2.102	3	41.82	0.24	129.16	0.0001	4588	22	19.5	410.8		2.102	3	41.8	10.204	0.0001	993.2833	1.638	21.4355	13.0867	1626.958	0.645	0.7839
2.112	3	42.82	0.25	121.6	0.0001	4672	21	19.49	407.9		2.112	3	42.8	10.205	0.0001	1072.292	1.6133	20.4554	12.6796	1729.882	0.6594	0.7899
2.122	3	43.82	0.2	120.82	0.0001	4686	21	19.5	406.3		2.122	3	43.8	10.2	0.0001	1080.623	1.61	20.4844	12.7231	1739.814	0.6612	0.7934
2.132	3	44.82	0.18	129.1	0.0001	4600	20	19.49	405.6		2.132	3	44.8	10.198	0.0001	993.2794	1.6354	19.52	11.936	1624.389	0.6465	0.7949
2.142	3	45.82	0.17	128.81	0.0001	4589	19	19.49	404		2.142	3	45.8	10.197	0.0001	995.9953	1.6388	18.5492	11.3189	1632.225	0.6446	0.7982
2.152	3	46.82	0.15	129.93	0.0001	4570	18	19.49	403.5		2.152	3	46.8	10.195	0.0001	985.0242	1.6447	17.5829	10.6903	1620.113	0.6411	0.7992
2.162	3	47.82	0.16	141.05	0.0001	4644	18	19.48	404.6		2.162	3	47.8	10.196	0.0001	889.548	1.6228	17.5779	10.8318	1443.564	0.6538	0.7969
2.172	3	48.82	0.21	135.87	0.0001	4663	17	19.49	407.1		2.172	3	48.8	10.201	0.0001	932.109	1.6165	16.5779	10.2555	1506.748	0.6575	0.7916
2.182	3	49.82	0.26	140.96	0.0001	4669	17	19.48	408.8		2.182	3	49.8	10.206	0.0001	891.1201	1.614	16.5545	10.257	1438.237	0.659	0.7881
2.192	3	50.82	0.28	123.89	0.0001	4704	16	19.48	411.3		2.192	3	50.8	10.208	0.0001	1047.404	1.6036	15.5719	9.7107	1679.6	0.665	0.7829
2.202	3	51.82	0.28	123.8	0.0001	4589	16	19.48	411.9		2.202	3	51.8	10.208	0.0001	1048.372	1.637	15.5719	9.5123	1716.208	0.6456	0.7818
2.212	3	52.82	0.34	124.91	0.0001	4667	15	19.47	413.1		2.212	3	52.8	10.214	0.0001	1037.165	1.6133	14.5739	9.0337	1673.236	0.6594	0.7792
2.222	3	53.82	0.43	125.14	0.0002	4633	15	19.48	415.3		2.222	3	53.8	10.223	0.0002	1035.66	1.6217	14.5369	8.9639	1679.551	0.6545	0.7747
2.232	3	54.82	0.48	124.62	0.0001	4640	16	19.47	415.6		2.232	3	54.8	10.228	0.0001	1041.654	1.6189	15.4842	9.5647	1686.324	0.6561	0.7742
2.242	3	55.82	0.53	125.41	0.0002	4694	16	19.47	417.1		2.242	3	55.8	10.233	0.0002	1033.845	1.6025	15.4624	9.6488	1656.763	0.6656	0.7713
2.252	3	56.82	0.64	125.19	0.0002	4626	15	19.46	414.5		2.252	3	56.8	10.244	0.0002	1037.262	1.6204	14.4511	8.9181	1680.814	0.6552	0.7763
2.262	3	57.82	0.73	125.03	0.0001	4709	16	19.47	414.7		2.262	3	57.8	10.253	0.0001	1039.858	1.5951	15.3755	9.6391	1658.7	0.6699	0.776
2.272	3	58.82	0.78	124.6	0.0001	4679	15	19.46	413.8		2.272	3	58.8	10.258	0.0001	1044.922	1.6029	14.3943	8.9801	1674.918	0.6654	0.7778
2.282	3	59.82	0.78	124.53	0.0001	4666	16	19.46	412.3		2.282	3	59.8	10.258	0.0001	1045.668	1.6066	15.3539	9.5565	1680.019	0.6632	0.7808
2.292	3	60.82	0.83	124.54	0.0002	4641	16	19.46	411.8		2.292	3	60.8	10.263	0.0002	1046.071	1.6131	15.3324	9.505	1687.396	0.6595	0.7819
2.302	3	61.82	0.78	124.15	0.0002	4729	16	19.46	413.9		2.302	3	61.8	10.258	0.0002	1049.734	1.5887	15.3539	9.6647	1667.681	0.6736	0.7776
2.312	3	62.82	0.73	124.67	0.0002	4644	16	19.46	413.9		2.312	3	62.8	10.253	0.0002	1043.669	1.6138	15.3755	9.5276	1684.256	0.6591	0.7776
2.322	3	63.82	0.71	125.3	0.0001	4654	17	19.46	413.1		2.322	3	63.8	10.251	0.0001	1036.816	1.6112	16.3457	10.145	1670.524	0.6606	0.7793
2.332	3	64.82	0.63	125.1	0.0001	4663	16	19.46	411.9		2.332	3	64.8	10.243	0.0001	1038.107	1.6099	15.4189	9.5777	1671.212	0.6613	0.7817
2.342	3	65.82	0.57	125.05	0.0001	4682	17	19.46	410.4		2.342	3	65.8	10.237	0.0001	1038.025	1.6053	16.4103	10.2223	1666.381	0.664	0.7848
2.352	3	66.82	0.45	140.47	0.0001	4561	17	19.46	406		2.352	3	66.8	10.225	0.0001	896.6152	1.6426	16.4659	10.0243	1472.771	0.6423	0.7939
2.362	3	67.82	0.37	125.38	0.0001	4603	18	19.45	399.9		2.362	3	67.8	10.217	0.0001	1032.542	1.6315	17.4739	10.7106	1684.547	0.6488	0.807
2.372	3	68.82	0.37	125.22	0.0002	4650	18	19.45	396.4		2.372	3	68.8	10.217	0.0002	1034.214	1.6177	17.4739	10.8015	1673.077	0.6568	0.8147
2.382	3	69.82	0.27	125.29	0.0002	4641	18	19.46	391.1		2.382	3	69.8	10.207	0.0002	1032.47	1.6219	17.5233	10.804	1674.595	0.6543	0.8265
2.392	3	70.82	0.22	125.02	0.0002	4533	19	19.45	387.3		2.392	3	70.8	10.202	0.0002	1034.791	1.6547	18.523	11.1944	1712.234	0.6353	0.8354
2.402	3	71.82	0.17	125.21	0.0002	4573	19	19.45	385.5		2.402	3	71.8	10.197	0.0002	1032.294	1.6435	18.5492	11.2862	1696.606	0.6418	0.8394
2.412	3	72.82	0.13	124.55	0.0001	4554	19	19.44	385.6		2.412	3	72.8	10.193	0.0001	1038.83	1.6498	18.5702	11.2558	1713.899	0.6381	0.8393
2.422	3	73.82	0.09	124.66	0.0001	4471	20	19.45	390		2.422	3	73.8	10.189	0.0001	1037.26	1.6756	19.5698	11.6794	1738.012	0.6232	0.8292
2.432	3	74.82	0	125.29	0.0001	4486	20	19.45	392		2.432	3	74.8	10.18	0.0001	1029.739	1.6725	19.6197	11.7309	1722.216	0.625	0.8245
2.442	3	75.82	-0.06	125.08	0.0001	4558	20	19.45	392.1		2.442	3	75.8	10.174	0.0001	1031.323	1.6517	19.6532	11.8986	1703.457	0.6371	0.8243
2.452	3	76.82	-0.06	125.2	0.0001	4404	21	19.45	394.1		2.452	3	76.8	10.174	0.0001	1030.07	1.6988	20.6358	12.1474	1749.861	0.6098	0.8198
2.462	3	77.82	-0.15	125.25	0.0001	4400	21	19.45	392.6		2.462	3	77.8	10.165	0.0001	1028.638	1.7015	20.6886	12.1588	1750.263	0.6082	0.8231
2.472	3	78.82	-0.15	125.69	0.0001	4369	21	19.45	393.2		2.472	3	78.8	10.165	0.0001	1024.078	1.7113	20.6886	12.0895	1752.486	0.6025	0.8218
2.482	3	79.82	-0.24	125.2	0.0001	4380	22	19.45	394.3		2.482	3	79.8	10.156	0.0001	1028.247	1.7093	21.7293	12.7122	1757.61	0.6036	0.8193
2.492	3	80.82	-0.34	125.41	0.0001	4406	21	19.46	393.9		2.492	3	80.8	10.146	0.0001	1025.056	1.7028	20.8007	12.2153	1745.506	0.6074	0.8202
2.502	3	81.82	-0.41	124.76	0.0001	4414	21	19.45	393		2.502	3	81.8	10.139	0.0001	1031.12	1.7015	20.8422	12.2492	1754.464	0.6082	0.8223
2.512	3	82.82	-0.41	140.09	0.0001	4474	20	19.45	394		2.512	3	82.8	10.139	0.0001	892.0465	1.6829	19.8497	11.7948	1501.244	0.619	0.82
2.522	3	83.82	-0.5	122.73	0.0001	4516	20	19.45	390.4		2.522	3	83.8	10.13	0.0001	1051.921	1.6716	19.9007	11.9053	1758.37	0.6255	0.8282
2.532	3	84.82	-0.55	123.93	0.0001	4440	20	19.46	389.7		2.532	3	84.8	10.125	0.0001	1038.462	1.6958	19.9291	11.7523	1760.98	0.6115	0.8298
2.542	3	85.82	-0.61	128.54	0.0001	4403	19	19.45	389.5		2.542	3	85.8	10.119	0.0001	990.9901	1.7083	18.9651	11.1015	1692.935	0.6042	0.8302
2.552	3	86.82	-0.71	128.96	0.0001	4371	18	19.46	386.3		2.552	3	86.8	10.109	0.0001	985.9553	1.7201	18.0183	10.475	1695.968	0.5974	0.8376
2.562	3	87.82	-0.66	118.35	0.0001	4412	18	19.46	386.5		2.562	3	87.8	10.114	0.0001	1100.305	1.7063	17.9926	10.5445	1877.5	0.6054	0.8372
2.572	3	88.82	-0.65	118.61	0.0001	4445	18	19.46	389.5		2.572	3	88.8	10.115	0.0001	1097.31	1.6959	17.9874	10.6065	1860.907	0.6114	0.8301
2.582	3	89.82	-0.7	124.97	0.0002	4416	17	19.46	389.3		2.582	3	89.8	10.11	0.0002	1025.979	1.7058	17.0124	9.9735	1750.082	0.6057	0.8308
2.592	3	90.82	-0.71	139.99	0.0001	4514	16	19.47	392.8		2.592	3	90.8	10.109	0.0001	890.1902	1.6757	16.0163	9.5582	1491.657	0.6232	0.8228
2.602	3	91.82	-0.66	140.14	0.0001	4491	16	19.47	391.7		2.602	3	91.8	10.114	0.0001	889.4556	1.6819	15.9934	9.5094	1495.939	0.6196	0.8251
2.612	3	92.82	-0.65	139.88	0.0001	4448	16	19.47	392.5		2.612	3	92.8	10.115	0.0001	891.5822	1.695	15.9888	9.4332	1511.188	0.612	0.8234
2.622	3	93.82	-0.62	126.86	0.0001	4441	15	19.47	394.4		2.622	3	93.8	10.118	0.0001	1007.468	1.6966	14.9767	8.8274	1709.291	0.611	0.8192
2.632	3	94.82	-0.6	126.37	0.0001	4554	15	19.47	395.1		2.632	3	94.8	10.12	0.0001	1012.608	1.6617	14.9681	9.0075	1682.687	0.6312	0.8175
2.642	3	95.82	-0.65	124.37	0.0002	4513	14	19.47	394.1		2.642	3	95.8	10.115	0.0002	1032.775	1.675	13.9902	8.3525	1729.87	0.6236	0.8198
2.652	3	96.82	-0.55	125.03	0.0001	4525	14	19.47	394		2.652	3	96.8	10.125	0.0001	1026.876	1.6697	13.9504	8.3551	1714.548	0.6266	0.8201
2.662	3	97.82	-0.55	126.17	0.0002	4429	14	19.47	391.3		2.662	3	97.8	10.125	0.0002	1015.139	1.6992	13.9504	8.21	1724.906	0.6095	0.8261
2.672	3	98.82	-0.5	128.47	0.0001	4495	13	19.47	391.3		2.672	3	98.8	10.13	0.0001	992.7479	1.678	12.9354	7.7089	1665.81	0.6218	0.8261
2.682	3	99.82	-0.45	140.6	0.0001	4496	13	19.48	390.5		2.682	3	99.8	10.135	0.0001	887.7113	1.6768	12.917	7.7032	1488.555	0.6225	0.8279
2.692	3	100.82	-0.36	124.88	0.0001	4537	13	19.48	391.7		2.692	3	100.8	10.144	0.0001	1030.371	1.6629	12.8839	7.7478	1713.425	0.6306	0.8252
2.702	3	101.82	-0.35	139.95	0.0001	4458	13	19.48	393.4		2.702	3	101.8	10.145	0.0001	893.6751	1.6869	12.8803	7.6357	1507.496	0.6167	0.8213
2.712	3	102.82	-0.3	118.82	0.0001	4430	12	19.48	392.3		2.712	3	102.8	10.15	0.0001	1098.604	1.6947	11.8726	7.0058	1861.788	0.6121	0.8239
2.722	3	103.82	-0.2	118.83	0.0002	4414	12	19.53	389.4		2.722	3	103.8	10.16	0.0002	1099.567	1.698	11.8389	6.9723	1867.061	0.6102	0.8305
2.732	3	104.82	-0.15	118.89	0.0002	4442	12	19.54	388.6		2.732	3	104.8	10.165	0.0002	1099.394	1.6885	11.8221	7.0017	1856.291	0.6157	0.8324
2.742	3	105.82	-0.15	139.75	0.0001	4479	12	19.55	388.8		2.742	3	105.8	10.165	0.0001	897.0173	1.6771	11.8221	7.0492	1504.375	0.6223	0.8318
2.752	3	106.82	-0.15	103.9	0.0002	4498	12	19.69	389.7		2.752	3	106.8	10.165	0.0002	1312.121	1.6713	11.8221	7.0736	2192.932	0.6257	0.8297
2.762	3	107.82	-0.15	104.37	0.0004	4450	12	19.59	389.6		2.762	3	107.8	10.165	0.0004	1304.208	1.686	11.8221	7.0119	2198.89	0.6172	0.8299
2.772	3	108.82	-0.2	104.63	0.0004	4465	11	19.67	391.4		2.772	3	108.8	10.16	0.0004	1299.233	1.6822	10.8523	6.4512	2185.577	0.6194	0.826
2.782	3	109.82	-0.15	104.97	0.0011	4492	11	19.36	393.1		2.782	3	109.8	10.165	0.0011	1294.245	1.6731	10.8369	6.4771	2165.422	0.6246	0.822
2.792	3	110.82	-0.11	104.94	0.0007	4491	11	19.13	395.5		2.792	3	110.8	10.169	0.0007	1295.249	1.6728	10.8246	6.4711	2166.644	0.6248	0.8167
2.802	3	111.82	-0.1	105.12	0.0006	4496	12	19.49	396.4		2.802	3	111.8	10.17	0.0006	1292.413	1.6711	11.8053	7.0645	2159.719	0.6258	0.8147
2.812	3	112.82	-0.05	93.61	0.0006	4492	11	19.89	399.2		2.812	3	112.8	10.175	0.0006	1514.588	1.6715	10.8062	6.4651	2531.59	0.6256	0.8086
2.822	3	113.82	0	93.79	0.0011	4521	11	20.17	398.8		2.822	3	113.8	10.18	0.0011	1511.283	1.6619	10.7909	6.4932	2511.539	0.6312	0.8094
2.832	3	114.82	0	93.92	0.001	4540	11	20.27	399.2		2.832	3	114.8	10.18	0.001	1508.372	1.6561	10.7909	6.5157	2498.072	0.6345	0.8086
2.842	3	115.82	0.05	93.85	0.0016	4490	11	20.35	400.3		2.842	3	115.8	10.185	0.0016	1510.679	1.6704	10.7756	6.4507	2523.498	0.6262	0.8061
2.852	3	116.82	0.1	94.21	0.0016	4490	11	20.42	401.1		2.852	3	116.8	10.19	0.0016	1503.393	1.6696	10.7603	6.4448	2510.095	0.6267	0.8043
2.862	3	117.82	0.1	93.9	0.0015	4524	12	20.5	404.7		2.862	3	117.8	10.19	0.0015	1510.301	1.6593	11.7385	7.0743	2506.078	0.6326	0.7967
2.872	3	118.82	0.15	94.02	0.0027	4469	11	20.57	407.4		2.872	3	118.8	10.195	0.0027	1508.359	1.6752	10.7451	6.4142	2526.813	0.6234	0.7909
2.882	3	119.82	0.19	94.08	0.0017	4468	11	20.66	413.3		2.882	3	119.8	10.199	0.0017	1507.613	1.6749	10.7329	6.4083	2525.032	0.6236	0.7788
2.892	3	120.82	0.2	94.07	0.0014	4536	11	20.74	413.6		2.892	3	120.8	10.2	0.0014	1507.983	1.6541	10.7299	6.4869	2494.341	0.6357	0.7782
2.902	3	121.82	0.25	93.91	0.0027	4463	11	20.83	413.8		2.902	3	121.8	10.205	0.0027	1512.3	1.6754	10.7147	6.3953	2533.707	0.6233	0.7779
2.912	3	122.82	0.3	94.18	0.0025	4470	12	20.93	390.9		2.912	3	122.8	10.21	0.0025	1507.011	1.6724	11.6723	6.9792	2520.385	0.625	0.8271
2.922	3	123.82	0.39	94.22	0.0016	4425	11	21.05	387.5		2.922	3	123.8	10.219	0.0016	1507.449	1.6848	10.6724	6.3346	2539.731	0.6179	0.8348
2.932	3	124.82	0.43	94.05	0.001	4517	11	21.18	385.5		2.932	3	124.8	10.223	0.001	1511.831	1.6561	10.6604	6.4372	2503.701	0.6345	0.8396
2.942	3	125.82	0.53	94.19	0.002	4525	11	21.32	386		2.942	3	125.8	10.233	0.002	1510.183	1.6521	10.6304	6.4347	2494.9	0.6369	0.8383
2.952	3	126.82	0.63	94.31	0.0036	4501	11	21.45	387.5		2.952	3	126.8	10.243	0.0036	1508.987	1.6577	10.6005	6.3949	2501.38	0.6336	0.8349
2.962	3	127.82	0.73	94.52	0.0018	4475	11	21.59	389.2		2.962	3	127.8	10.253	0.0018	1505.801	1.6639	10.5707	6.3529	2505.512	0.63	0.8309
2.972	3	128.82	0.83	94.51	0.0016	4437	11	21.74	391.2		2.972	3	128.8	10.263	0.0016	1507.491	1.6739	10.541	6.2974	2523.354	0.6242	0.8263
2.982	3	129.82	0.88	94.46	0.0023	4495	11	21.9	390.7		2.982	3	129.8	10.268	0.0023	1509.334	1.6554	10.5262	6.3586	2498.593	0.6349	0.8276
2.992	3	130.82	0.93	94.55	0.0027	4450	11	22.03	391.4		2.992	3	130.8	10.273	0.0027	1508.074	1.6683	10.5115	6.3008	2515.876	0.6275	0.8258
3.002	3	131.82	0.98	94.39	0.0019	4460	11	22.16	388.4		3.002	3	131.8	10.278	0.0019	1512.36	1.6644	10.4967	6.3066	2517.192	0.6297	0.8328
3.012	3	132.82	1.19	94.43	0.0023	4469	11	22.29	389.1		3.012	3	132.8	10.299	0.0023	1514.559	1.6583	10.4352	6.2927	2511.577	0.6332	0.8311
3.022	3	133.82	2.36	95.04	0.0019	4473	12	22.4	389.7		3.022	3	133.8	10.416	0.0019	1518.146	1.6385	11.0195	6.7255	2487.43	0.6447	0.8298
3.032	3	134.82	3.04	101.17	0.0003	4413	11	22.49	388.9		3.032	3	134.8	10.484	0.0003	1402.729	1.6458	9.914	6.0237	2308.645	0.6405	0.8316
3.042	3	135.82	3.5	999	0	4313	11	22.6	383.1		3.042	3	135.8	10.53	0	108.2698	1.6692	9.7901	5.8652	180.722	0.6269	0.8453
3.052	3	136.82	3.45	999	0	4278	10	22.7	371.9		3.052	3	136.8	10.525	0	108.2184	1.6809	8.9123	5.3021	181.9029	0.6201	0.8728
3.062	3	137.82	3.27	999	0	4248	11	22.8	349.7		3.062	3	137.8	10.507	0	108.0334	1.6932	9.8518	5.8184	182.925	0.613	0.9324
3.072	3	138.82	3.3	94.93	0.0003	4344	10	22.88	310.4		3.072	3	138.8	10.51	0.0003	1534.307	1.6628	8.9488	5.3819	2551.204	0.6306	1.0604
3.082	3	139.82	3.16	95.63	0.0004	4318	9	22.95	250.8		3.082	3	139.8	10.496	0.0004	1516.763	1.673	8.0848	4.8324	2537.596	0.6247	1.3341
3.092	3	140.82	2.95	94.29	0.0006	4748	9	22.99	179.6		3.092	3	140.8	10.475	0.0006	1543.619	1.5505	8.1315	5.2444	2393.394	0.6958	1.9122
3.102	3	141.82	2.5	109.64	0.0002	4849	7	23.05	113.5		3.102	3	141.8	10.43	0.0002	1253.455	1.5296	6.4033	4.1862	1917.294	0.7079	3.1337
3.112	3	142.82	2.14	999	0	11116	6	23.12	76.8		3.112	3	142.8	10.394	0	106.8715	0.546	5.5434	10.153	58.3501	1.2784	4.7774
3.122	4	0.85	1.01	999	0	16574	4	23.17	59.4		3.122	4	0.9	10.281	0	105.7096	0.126	3.8138	30.2692	13.3189	1.522	6.2962
3.132	4	1.85	-0.03	999	0	16505	4	23.23	52.3		3.132	4	1.9	10.177	0	104.6403	0.1316	3.9273	29.836	13.7737	1.5188	7.2306
3.142	4	2.85	-0.89	999	0	16532	2	23.26	40.9		3.142	4	2.9	10.091	0	103.756	0.131	2.0124	15.3577	13.5955	1.5191	9.4164
3.152	4	3.85	-1.24	999	0	16549	2	23.29	30.7		3.152	4	3.9	10.056	0	103.3962	0.1304	2.0327	15.5874	13.4835	1.5195	12.8234
3.162	4	4.85	-1.24	999	0	16460	2	23.35	20.9		3.162	4	4.9	10.056	0	103.3962	0.1361	2.0327	14.9359	14.0716	1.5162	19.3954
3.172	4	5.85	-1.26	999	0	16419	2	23.4	13.7		3.172	4	5.9	10.054	0	103.3756	0.1388	2.0339	14.658	14.3437	1.5146	30.4921
3.182	4	6.85	-1.28	999	0	16479	1	23.45	8.7		3.182	4	6.9	10.052	0	103.355	0.1349	1.0175	7.541	13.9457	1.5169	49.7677
3.192	4	7.85	-1.29	999	0	16605	1	23.5	6.5		3.192	4	7.9	10.051	0	103.3447	0.1269	1.0178	8.02	13.1153	1.5215	68.3015
3.202	4	8.85	-1.28	999	0	16536	1	23.55	3.7		3.202	4	8.9	10.052	0	103.355	0.1313	1.0175	7.7503	13.5691	1.519	124.254
3.212	4	9.85	-1.29	999	0	16428	2	23.59	3.1		3.212	4	9.9	10.051	0	103.3447	0.1382	2.0356	14.7277	14.2839	1.515	150.6155
3.222	4	10.85	-1.28	999	0	16529	1	23.48	0.2		3.222	4	10.9	10.052	0	103.355	0.1317	1.0175	7.724	13.6153	1.5187	3255.933
3.232	4	11.85	-1.29	999	0	16523	1	23.08	0.4		3.232	4	11.9	10.051	0	103.3447	0.1321	1.0178	7.7031	13.6549	1.5185	1542.898
