Geotek MSCL 7.9 - TN336_JPC5-05.raw created at 6:59:53 on 1/20/2016.											Geotek MSCL 7.9 - TN336_JPC5-05.out created at 12:50:26 on 1/20/2016.											
																						
																						
Core Depth	Section	Sect Depth	CTD 	Tr. Time 	PW Amp   	A Gamma  	Mag Sus  	Temp     	NC Res   		SB DEPTH	SECT NUM	SECT DEPTH	CT	PWAmp	PWVel	Den1	MS1	Msmass	Imp	FP	RES
m		cm	mm	µsec		cps	SI x 10^-5	°C	mV		m		cm	cm		m/s	g/cc	SI x 10^-5	x 10^-8 (m^3/kg)			Ohm.m
																						
0.002	1	0.2	4.08	999	0	1542	6	20.97	270.8		0.002	1	0.2	10.588	0	108.9009	1.4017	5.2565	3.7502	152.6416	0.7821	1.2523
0.012	1	1.2	4.41	999	0	1461	8	20.97	327.4		0.012	1	1.2	10.621	0	109.2403	1.4682	6.9464	4.7312	160.3893	0.7435	1.0037
0.022	1	2.2	4.04	999	0	1593	9	20.97	405.2		0.022	1	2.2	10.584	0	108.8598	1.3597	7.8934	5.8053	148.0153	0.8064	0.7827
0.032	1	3.2	3.43	999	0	1854	11	20.97	481.8		0.032	1	3.2	10.523	0	108.2324	1.1722	9.8088	8.3676	126.8738	0.9152	0.6396
0.042	1	4.2	2.29	999	0	1665	10	20.97	547.3		0.042	1	4.2	10.409	0	107.0598	1.3243	9.2007	6.9474	141.7836	0.8269	0.5514
0.052	1	5.2	-1.93	137.97	0.0001	1558	11	20.98	596.3		0.052	1	5.2	9.987	0.0001	897.8692	1.4717	11.4046	7.7494	1321.378	0.7415	0.4989
0.062	1	6.2	-2.8	98.46	0.0004	1517	11	20.97	629.2		0.062	1	6.2	9.9	0.0004	1380.368	1.522	11.6972	7.6854	2100.94	0.7123	0.4686
0.072	1	7.2	-2.86	98.78	0.0027	1526	12	20.96	652.6		0.072	1	7.2	9.894	0.0027	1373.404	1.5146	12.7831	8.4398	2080.18	0.7166	0.4491
0.082	1	8.2	-2.87	100.22	0.0025	1470	12	20.97	663.9		0.082	1	8.2	9.893	0.0025	1346.353	1.5676	12.7868	8.1572	2110.48	0.6859	0.4402
0.092	1	9.2	-2.81	93.87	0.0036	1499	12	20.97	668.2		0.092	1	9.2	9.899	0.0036	1474.601	1.539	12.7644	8.294	2269.386	0.7024	0.4369
0.102	1	10.2	-2.86	94.46	0.0041	1509	12	20.97	667.7		0.102	1	10.2	9.894	0.0041	1461.016	1.5304	12.7831	8.3528	2235.915	0.7074	0.4373
0.112	1	11.2	-2.92	94.44	0.0022	1522	12	20.97	666.9		0.112	1	11.2	9.888	0.0022	1460.561	1.5192	12.8055	8.429	2218.927	0.7139	0.4379
0.122	1	12.2	-2.86	94.19	0.001	1493	11	20.98	666.9		0.122	1	12.2	9.894	0.001	1466.864	1.5454	11.7178	7.5823	2266.927	0.6987	0.4379
0.132	1	13.2	-2.87	98.83	0.0005	1469	11	20.98	667.8		0.132	1	13.2	9.893	0.0005	1372.312	1.5685	11.7212	7.4728	2152.497	0.6853	0.4372
0.142	1	14.2	-2.92	93.69	0.0012	1495	11	20.98	664.9		0.142	1	14.2	9.888	0.0012	1476.923	1.5445	11.7384	7.6003	2281.063	0.6993	0.4394
0.152	1	15.2	-2.92	94.31	0.0013	1467	11	20.98	663.6		0.152	1	15.2	9.888	0.0013	1463.371	1.5712	11.7384	7.4708	2299.315	0.6837	0.4404
0.162	1	16.2	-3.06	94.28	0.0018	1473	11	20.98	661.5		0.162	1	16.2	9.874	0.0018	1461.948	1.5677	11.7867	7.5186	2291.859	0.6858	0.442
0.172	1	17.2	-3.06	94.38	0.0011	1551	10	20.98	657.4		0.172	1	17.2	9.874	0.0011	1459.787	1.4948	10.7152	7.1681	2182.147	0.7281	0.4453
0.182	1	18.2	-3.06	99.01	0.0006	1578	10	20.98	652.9		0.182	1	18.2	9.874	0.0006	1366.265	1.4707	10.7152	7.2859	2009.323	0.7421	0.4488
0.192	1	19.2	-3.02	98.94	0.0003	1577	10	20.98	648.3		0.192	1	19.2	9.878	0.0003	1368.144	1.471	10.7026	7.2759	2012.483	0.7419	0.4525
0.202	1	20.2	-2.95	97.67	0.0002	1556	9	20.98	647.2		0.202	1	20.2	9.885	0.0002	1393.628	1.4887	9.6126	6.4572	2074.646	0.7316	0.4535
0.212	1	21.2	-3	99.63	0.0002	1488	9	20.98	647.7		0.212	1	21.2	9.88	0.0002	1355.467	1.5524	9.6267	6.2013	2104.175	0.6947	0.453
0.222	1	22.2	-2.9	94.05	0.0004	1509	9	20.98	648.6		0.222	1	22.2	9.89	0.0004	1469.321	1.531	9.5985	6.2694	2249.535	0.7071	0.4523
0.232	1	23.2	-2.93	94.42	0.0005	1484	9	20.98	647.2		0.232	1	23.2	9.887	0.0005	1460.845	1.5551	9.607	6.1778	2271.719	0.6931	0.4535
0.242	1	24.2	-2.9	106.74	0.0003	1503	9	20.98	646.7		0.242	1	24.2	9.89	0.0003	1236.25	1.5366	9.5985	6.2465	1899.649	0.7038	0.4539
0.252	1	25.2	-2.9	99.05	0.0003	1473	9	20.98	651.8		0.252	1	25.2	9.89	0.0003	1367.722	1.5651	9.5985	6.1327	2140.674	0.6873	0.4498
0.262	1	26.2	-2.79	107.49	0.0004	1512	9	20.98	656.5		0.262	1	26.2	9.901	0.0004	1226.13	1.5265	9.5677	6.2677	1871.694	0.7097	0.446
0.272	1	27.2	-2.77	107.8	0.0002	1484	9	20.99	656.3		0.272	1	27.2	9.903	0.0002	1221.688	1.5526	9.5621	6.1589	1896.742	0.6946	0.4461
0.282	1	28.2	-2.8	108.03	0.0001	1476	10	20.99	655.1		0.282	1	28.2	9.9	0.0001	1217.862	1.5607	10.6339	6.8136	1900.688	0.6899	0.4471
0.292	1	29.2	-2.74	112.13	0.0002	1493	9	20.99	657.6		0.292	1	29.2	9.906	0.0002	1160.089	1.5436	9.5537	6.1894	1790.658	0.6998	0.4452
0.302	1	30.2	-2.75	122.52	0.0002	1493	10	20.98	660.6		0.302	1	30.2	9.905	0.0002	1034.141	1.5437	10.6183	6.8784	1596.411	0.6997	0.4428
0.312	1	31.2	-2.69	132.49	0.0001	1497	9	20.99	640.5		0.312	1	31.2	9.911	0.0001	937.2104	1.539	9.5397	6.1987	1442.368	0.7024	0.459
0.322	1	32.2	-2.64	129.56	0.0001	1488	10	20.99	632.6		0.322	1	32.2	9.916	0.0001	964.4037	1.5467	10.5842	6.843	1491.668	0.698	0.4657
0.332	1	33.2	-2.64	157.48	0	1494	10	20.99	623.1		0.332	1	33.2	9.916	0	758.4518	1.5411	10.5842	6.8682	1168.813	0.7012	0.474
0.342	1	34.2	-2.61	145.52	0	1499	10	20.99	615.3		0.342	1	34.2	9.919	0	835.0732	1.5359	10.575	6.8853	1282.572	0.7042	0.481
0.352	1	35.2	-2.56	145.17	0	1496	9	20.99	610.6		0.352	1	35.2	9.924	0	837.9633	1.5379	9.5036	6.1795	1288.725	0.7031	0.4853
0.362	1	36.2	-2.6	116.63	0.0001	1487	9	20.99	608.5		0.362	1	36.2	9.92	0.0001	1103.571	1.5471	9.5147	6.1502	1707.279	0.6978	0.4872
0.372	1	37.2	-2.55	106.98	0.0002	1469	10	20.99	606.7		0.372	1	37.2	9.925	0.0002	1236.914	1.5635	10.5565	6.752	1933.867	0.6882	0.4889
0.382	1	38.2	-2.55	98.41	0.0003	1470	10	20.99	603.5		0.382	1	38.2	9.925	0.0003	1384.819	1.5625	10.5565	6.7561	2163.779	0.6888	0.492
0.392	1	39.2	-2.55	104.6	0.0002	1475	10	20.99	599.8		0.392	1	39.2	9.925	0.0002	1274.724	1.5577	10.5565	6.7769	1985.64	0.6916	0.4955
0.402	1	40.2	-2.54	99.13	0.0002	1443	9	20.99	596.8		0.402	1	40.2	9.926	0.0002	1371.184	1.5886	9.498	5.9789	2178.257	0.6737	0.4984
0.412	1	41.2	-2.6	100.28	0.0002	1435	10	21	592.6		0.412	1	41.2	9.92	0.0002	1348.926	1.5975	10.5719	6.6179	2154.851	0.6685	0.5025
0.422	1	42.2	-2.57	112.59	0.0002	1464	10	21	588.5		0.422	1	42.2	9.923	0.0002	1155.853	1.5686	10.5626	6.7338	1813.07	0.6853	0.5067
0.432	1	43.2	-2.59	121.38	0.0002	1463	9	21	585.2		0.432	1	43.2	9.921	0.0002	1048.288	1.5699	9.5119	6.059	1645.689	0.6845	0.51
0.442	1	44.2	-2.6	129	0.0001	1437	10	21	582.9		0.442	1	44.2	9.92	0.0001	970.0763	1.5955	10.5719	6.6262	1547.734	0.6697	0.5123
0.452	1	45.2	-2.6	143.16	0.0001	1440	10	21	580.6		0.452	1	45.2	9.92	0.0001	852.0872	1.5925	10.5719	6.6385	1356.96	0.6714	0.5147
0.462	1	46.2	-2.59	121.31	0.0001	1465	10	21	576.7		0.462	1	46.2	9.921	0.0001	1049.064	1.5679	10.5688	6.7405	1644.879	0.6856	0.5188
0.472	1	47.2	-2.6	121.37	0.0001	1482	10	21	574.2		0.472	1	47.2	9.92	0.0001	1048.293	1.5518	10.5719	6.8126	1626.743	0.695	0.5214
0.482	1	48.2	-2.51	142.28	0.0001	1505	10	21	571.1		0.482	1	48.2	9.929	0.0001	859.3561	1.5287	10.5442	6.8974	1313.713	0.7084	0.5247
0.492	1	49.2	-2.52	143.53	0	1482	10	21.01	568.8		0.492	1	49.2	9.928	0	850.0728	1.5506	10.5472	6.8022	1318.081	0.6957	0.5272
0.502	1	50.2	-2.47	144.58	0.0001	1478	10	21.01	567.8		0.502	1	50.2	9.933	0.0001	842.9225	1.5536	10.5319	6.7791	1309.549	0.694	0.5282
0.512	1	51.2	-2.64	143.91	0.0001	1501	10	21.01	567.1		0.512	1	51.2	9.916	0.0001	846.2916	1.5345	10.5842	6.8977	1298.607	0.7051	0.529
0.522	1	52.2	-2.6	128.47	0.0001	1486	11	21	568.4		0.522	1	52.2	9.92	0.0001	975.1302	1.548	11.6291	7.5123	1509.5	0.6972	0.5276
0.532	1	53.2	-2.6	144.57	0.0001	1455	10	21.01	570.6		0.532	1	53.2	9.92	0.0001	841.8908	1.5778	10.5719	6.7004	1328.341	0.6799	0.5252
0.542	1	54.2	-2.64	143.17	0.0001	1467	10	21	576.2		0.542	1	54.2	9.916	0.0001	851.6705	1.5668	10.5842	6.7553	1334.404	0.6863	0.5193
0.552	1	55.2	-2.63	142.84	0.0001	1475	10	21.01	579.5		0.552	1	55.2	9.917	0.0001	854.1774	1.559	10.5811	6.7873	1331.627	0.6909	0.5158
0.562	1	56.2	-2.55	128.15	0.0001	1474	10	21.01	582.2		0.562	1	56.2	9.925	0.0001	978.7004	1.5587	10.5565	6.7728	1525.461	0.691	0.5131
0.572	1	57.2	-2.56	124.94	0.0001	1447	10	21	584.7		0.572	1	57.2	9.924	0.0001	1010.591	1.585	10.5595	6.6622	1601.774	0.6758	0.5105
0.582	1	58.2	-2.63	110.86	0.0001	1449	10	21	594.5		0.582	1	58.2	9.917	0.0001	1178.911	1.5841	10.5811	6.6794	1867.567	0.6762	0.5006
0.592	1	59.2	-2.54	110.17	0.0001	1469	10	21.01	588.8		0.592	1	59.2	9.926	0.0001	1189.74	1.5633	10.5534	6.7507	1859.925	0.6883	0.5064
0.602	1	60.2	-2.55	111.25	0.0002	1458	10	21.01	575.1		0.602	1	60.2	9.925	0.0002	1174.417	1.5741	10.5565	6.7064	1848.644	0.6821	0.5204
0.612	1	61.2	-2.56	125.03	0.0001	1493	10	21.01	541.1		0.612	1	61.2	9.924	0.0001	1009.665	1.5408	10.5595	6.8535	1555.644	0.7014	0.5587
0.622	1	62.2	-2.51	121.98	0.0001	1453	10	21.01	537.8		0.622	1	62.2	9.929	0.0001	1042.524	1.5783	10.5442	6.6806	1645.442	0.6796	0.5627
0.632	1	63.2	-2.45	126.14	0.0001	1463	11	21.01	534.2		0.632	1	63.2	9.935	0.0001	999.4969	1.5677	11.5783	7.3857	1566.881	0.6858	0.5672
0.642	1	64.2	-2.44	143.34	0.0001	1434	10	21.01	531.2		0.642	1	64.2	9.936	0.0001	852.1441	1.5959	10.5227	6.5937	1359.915	0.6694	0.5709
0.652	1	65.2	-2.38	144.13	0.0001	1490	11	21	529.7		0.652	1	65.2	9.942	0.0001	846.9204	1.5408	11.5547	7.4992	1304.927	0.7014	0.5728
0.662	1	66.2	-2.39	128.86	0.0001	1461	11	21	527.7		0.662	1	66.2	9.941	0.0001	973.4626	1.5687	11.5581	7.3681	1527.028	0.6852	0.5753
0.672	1	67.2	-2.39	143.5	0.0001	1441	11	21.01	525.9		0.672	1	67.2	9.941	0.0001	851.4046	1.5882	11.5581	7.2776	1352.171	0.6739	0.5777
0.682	1	68.2	-2.28	143.15	0.0001	1425	11	21.02	523.4		0.682	1	68.2	9.952	0.0001	854.9094	1.6022	11.5211	7.1906	1369.77	0.6658	0.5808
0.692	1	69.2	-2.24	111.5	0.0001	1400	10	21.01	525.3		0.692	1	69.2	9.956	0.0001	1174.611	1.6268	10.4616	6.4309	1910.818	0.6515	0.5784
0.702	1	70.2	-2.09	94.38	0.0003	1446	11	21.01	530		0.702	1	70.2	9.971	0.0003	1474.128	1.5785	11.4577	7.2586	2326.9	0.6795	0.5724
0.712	1	71.2	-0.91	95.2	0.0008	1383	11	21.02	534.9		0.712	1	71.2	10.089	0.0008	1473.707	1.6225	11.0744	6.8254	2391.132	0.654	0.5663
0.722	1	72.2	2.04	999	0	1411	11	21.01	539.1		0.722	1	72.2	10.384	0	106.8027	1.549	10.1911	6.579	165.4409	0.6966	0.5611
0.732	1	73.2	1.35	101.2	0.0001	1368	11	21.01	539.2		0.732	1	73.2	10.315	0.0001	1385.307	1.602	10.3886	6.4846	2219.322	0.6659	0.561
0.742	1	74.2	1.18	999	0	1414	12	21.02	532.7		0.742	1	74.2	10.298	0	105.9182	1.559	11.387	7.3038	165.1316	0.6908	0.569
0.752	1	75.2	0.43	101.1	0.0001	1418	11	21.02	514.7		0.752	1	75.2	10.223	0.0001	1374.798	1.5666	10.6604	6.8049	2153.727	0.6864	0.5922
0.762	1	76.2	0.59	999	0	1403	12	21.01	480.1		0.762	1	76.2	10.239	0	105.3113	1.5788	11.5772	7.3327	166.2697	0.6793	0.6423
0.772	1	77.2	0.32	121.62	0.0001	1384	11	21.01	424.7		0.772	1	77.2	10.212	0.0001	1076.307	1.602	10.6936	6.6752	1724.221	0.6659	0.7411
0.782	1	78.2	0.34	95.94	0.0003	1413	11	21.01	353.7		0.782	1	78.2	10.214	0.0003	1476.011	1.5729	10.6875	6.795	2321.546	0.6828	0.9173
0.792	1	79.2	2.01	97.05	0.0003	1435	10	21.01	284.8		0.792	1	79.2	10.381	0.0003	1476.461	1.5265	9.2723	6.0742	2253.843	0.7097	1.1809
0.802	1	80.2	3.27	999	0	2864	10	21.01	245.7		0.802	1	80.2	10.507	0	108.0678	0.6454	8.9562	13.8774	69.7446	1.2208	1.4025
0.812	2	0.28	3.07	999	0	1634	11	21.02	246		0.812	2	0.3	10.487	0	107.8621	1.339	9.9059	7.398	144.4256	0.8185	1.4008
0.822	2	1.28	3.7	999	0	1547	10	21.02	288.2		0.822	2	1.3	10.55	0	108.5101	1.4024	8.8518	6.3116	152.1798	0.7816	1.1648
0.832	2	2.28	3.68	999	0	1469	11	21.02	355.8		0.832	2	2.3	10.548	0	108.4895	1.4711	9.7422	6.6223	159.6008	0.7418	0.911
0.842	2	3.28	3.35	999	0	1452	11	21.02	427.4		0.842	2	3.3	10.515	0	108.1501	1.4913	9.8303	6.5918	161.2827	0.7301	0.7356
0.852	2	4.28	2.68	999	0	1449	11	21.02	485.5		0.852	2	4.3	10.448	0	107.461	1.5036	10.0125	6.6589	161.582	0.7229	0.634
0.862	2	5.28	-1.37	95.89	0.0003	1462	11	21.02	527.4		0.862	2	5.3	10.043	0.0003	1452.35	1.5518	11.2217	7.2315	2253.709	0.695	0.5757
0.872	2	6.28	-1.97	95.21	0.0003	1433	11	21.02	555.4		0.872	2	6.3	9.983	0.0003	1458.011	1.5893	11.4179	7.184	2317.285	0.6732	0.542
0.882	2	7.28	-2.64	95.41	0.0003	1443	11	21.02	573.2		0.882	2	7.3	9.916	0.0003	1444.007	1.5902	11.6427	7.3215	2296.258	0.6727	0.5224
0.892	2	8.28	-2.81	96.88	0.0005	1486	11	21.02	586.3		0.892	2	8.3	9.899	0.0005	1411.32	1.5513	11.7007	7.5426	2189.356	0.6953	0.5088
0.902	2	9.28	-2.77	98.23	0.0009	1403	10	21.03	595		0.902	2	9.3	9.903	0.0009	1385.229	1.6324	10.6245	6.5085	2261.258	0.6483	0.5001
0.912	2	10.28	-2.76	95.44	0.0011	1449	11	21.01	599.9		0.912	2	10.3	9.904	0.0011	1441.63	1.5862	11.6836	7.3656	2286.75	0.675	0.4954
0.922	2	11.28	-2.81	95.24	0.0024	1477	10	21.01	603.4		0.922	2	11.3	9.899	0.0024	1445.109	1.5599	10.637	6.8191	2254.19	0.6903	0.4921
0.932	2	12.28	-2.76	96.24	0.0011	1452	11	21.02	603.6		0.932	2	12.3	9.904	0.0011	1425.036	1.5833	11.6836	7.3793	2256.241	0.6767	0.4919
0.942	2	13.28	-2.76	94.96	0.0012	1478	11	21.02	601.2		0.942	2	13.3	9.904	0.0012	1451.774	1.5581	11.6836	7.4984	2262.052	0.6913	0.4942
0.952	2	14.28	-2.76	95.24	0.0038	1421	11	21.01	599.6		0.952	2	14.3	9.904	0.0038	1445.839	1.614	11.6836	7.2388	2333.61	0.6589	0.4957
0.962	2	15.28	-2.76	95.42	0.0067	1458	11	21.01	600.8		0.962	2	15.3	9.904	0.0067	1442.05	1.5774	11.6836	7.4067	2274.737	0.6801	0.4946
0.972	2	16.28	-2.75	95.26	0.0064	1404	11	21.01	605.5		0.972	2	16.3	9.905	0.0064	1445.563	1.6311	11.6801	7.1611	2357.798	0.649	0.4901
0.982	2	17.28	-2.76	95.22	0.0088	1440	12	21.01	609		0.982	2	17.3	9.904	0.0088	1446.262	1.5951	12.7457	7.9906	2306.911	0.6699	0.4868
0.992	2	18.28	-2.76	95.43	0.0075	1398	11	21.01	614.2		0.992	2	18.3	9.904	0.0075	1441.84	1.6374	11.6836	7.1356	2360.807	0.6454	0.482
1.002	2	19.28	-2.76	95.59	0.0037	1472	11	21.01	614.6		1.002	2	19.3	9.904	0.0037	1438.49	1.5639	11.6836	7.4708	2249.635	0.688	0.4816
1.012	2	20.28	-2.76	95.47	0.0061	1450	12	21.02	612.6		1.012	2	20.3	9.904	0.0061	1441.001	1.5852	12.7457	8.0402	2284.339	0.6756	0.4835
1.022	2	21.28	-2.81	95.45	0.0053	1444	12	21.02	610.5		1.022	2	21.3	9.899	0.0053	1440.693	1.5919	12.7644	8.0181	2293.501	0.6717	0.4854
1.032	2	22.28	-2.76	95.76	0.0065	1418	11	21.02	610.6		1.032	2	22.3	9.904	0.0065	1434.946	1.617	11.6836	7.2253	2320.358	0.6572	0.4853
1.042	2	23.28	-2.71	95.44	0.0057	1422	12	21.02	612.5		1.042	2	23.3	9.909	0.0057	1442.358	1.6122	12.7271	7.8942	2325.368	0.66	0.4836
1.052	2	24.28	-2.71	95.62	0.0091	1414	12	21.02	618.5		1.052	2	24.3	9.909	0.0091	1438.589	1.6203	12.7271	7.855	2330.878	0.6553	0.4781
1.062	2	25.28	-2.71	95.58	0.008	1426	11	21.01	626.3		1.062	2	25.3	9.909	0.008	1439.425	1.6082	11.6665	7.2544	2314.873	0.6623	0.4712
1.072	2	26.28	-2.64	95.37	0.0098	1425	11	21.01	634.1		1.072	2	26.3	9.916	0.0098	1444.849	1.6081	11.6427	7.2402	2323.4	0.6624	0.4644
1.082	2	27.28	-2.66	95.32	0.0102	1400	12	21.02	643.6		1.082	2	27.3	9.914	0.0102	1445.611	1.6337	12.7085	7.7792	2361.636	0.6475	0.4564
1.092	2	28.28	-2.66	95.31	0.0143	1390	12	21.02	653.2		1.092	2	28.3	9.914	0.0143	1445.822	1.6439	12.7085	7.7306	2376.826	0.6416	0.4486
1.102	2	29.28	-2.61	95.64	0.0091	1403	12	21.03	662.4		1.102	2	29.3	9.919	0.0091	1439.623	1.6298	12.69	7.7863	2346.26	0.6498	0.4414
1.112	2	30.28	-2.62	95.64	0.0069	1438	11	21.02	668.4		1.112	2	30.3	9.918	0.0069	1439.478	1.5948	11.6359	7.2961	2295.692	0.6701	0.4367
1.122	2	31.28	-2.61	95.64	0.0064	1385	12	21.02	673.1		1.122	2	31.3	9.919	0.0064	1439.623	1.6483	12.69	7.699	2372.878	0.6391	0.4332
1.132	2	32.28	-2.61	95.64	0.0099	1412	11	21.02	686.8		1.132	2	32.3	9.919	0.0099	1439.623	1.6206	11.6325	7.1777	2333.109	0.6551	0.4232
1.142	2	33.28	-2.59	95.68	0.0074	1449	10	21.03	698.5		1.142	2	33.3	9.921	0.0074	1439.077	1.5835	10.5688	6.6743	2278.789	0.6766	0.4149
1.152	2	34.28	-2.56	95.72	0.0088	1457	10	21.02	709.3		1.152	2	34.3	9.924	0.0088	1438.678	1.5752	10.5595	6.7035	2266.242	0.6814	0.4075
1.162	2	35.28	-2.6	95.7	0.0079	1516	9	21.02	712.3		1.162	2	35.3	9.92	0.0079	1438.515	1.5199	9.5147	6.2602	2186.358	0.7135	0.4056
1.172	2	36.28	-2.56	95.69	0.008	1518	9	21.03	707.7		1.172	2	36.3	9.924	0.008	1439.304	1.5174	9.5036	6.263	2184.012	0.715	0.4086
1.182	2	37.28	-2.52	95.72	0.0077	1536	10	21.03	700.7		1.182	2	37.3	9.928	0.0077	1439.258	1.5003	10.5472	7.0301	2159.3	0.7249	0.4134
1.192	2	38.28	-2.55	95.73	0.0076	1483	10	21.03	690.8		1.192	2	38.3	9.925	0.0076	1438.614	1.5501	10.5565	6.8103	2229.95	0.696	0.4203
1.202	2	39.28	-2.55	95.63	0.0076	1512	9	21.02	678.4		1.202	2	39.3	9.925	0.0076	1440.703	1.5228	9.5008	6.239	2193.923	0.7118	0.4293
1.212	2	40.28	-2.58	95.55	0.0084	1457	9	21.02	665.1		1.212	2	40.3	9.922	0.0084	1441.942	1.5755	9.5091	6.0355	2271.84	0.6812	0.4393
1.222	2	41.28	-2.6	95.52	0.0082	1463	10	21.03	654.7		1.222	2	41.3	9.92	0.0082	1442.28	1.57	10.5719	6.7335	2264.437	0.6844	0.4474
1.232	2	42.28	-2.6	95.45	0.0083	1516	11	21.02	645.1		1.232	2	42.3	9.92	0.0083	1443.749	1.5199	11.6291	7.6513	2194.313	0.7135	0.4552
1.242	2	43.28	-2.61	95.42	0.0097	1498	11	21.02	635.1		1.242	2	43.3	9.919	0.0097	1444.234	1.5368	11.6325	7.5692	2219.527	0.7037	0.4636
1.252	2	44.28	-2.65	95.61	0.01	1481	12	21.03	621.9		1.252	2	44.3	9.915	0.01	1439.669	1.5535	12.7048	8.178	2236.579	0.694	0.475
1.262	2	45.28	-2.65	95.71	0.0088	1465	12	21.02	608.4		1.262	2	45.3	9.915	0.0088	1437.582	1.5689	12.7048	8.0979	2255.418	0.6851	0.4874
1.272	2	46.28	-2.56	95.69	0.0086	1493	12	21.03	594.1		1.272	2	46.3	9.924	0.0086	1439.304	1.5408	12.6715	8.2242	2217.61	0.7014	0.5011
1.282	2	47.28	-2.64	95.67	0.0084	1489	13	21.02	580.9		1.282	2	47.3	9.916	0.0084	1438.561	1.5458	13.7595	8.9013	2223.696	0.6985	0.5144
1.292	2	48.28	-2.54	95.73	0.008	1471	13	21.03	571		1.292	2	48.3	9.926	0.008	1438.759	1.5614	13.7194	8.7867	2246.451	0.6895	0.5247
1.302	2	49.28	-2.48	95.68	0.0077	1420	13	21.02	564.5		1.302	2	49.3	9.932	0.0077	1440.673	1.6105	13.6954	8.504	2320.159	0.661	0.5318
1.312	2	50.28	-2.51	95.7	0.0076	1447	13	21.03	555.5		1.312	2	50.3	9.929	0.0076	1439.82	1.5842	13.7074	8.6526	2280.948	0.6762	0.5419
1.322	2	51.28	-2.51	95.76	0.0073	1428	13	21.02	553.4		1.322	2	51.3	9.929	0.0073	1438.568	1.603	13.7074	8.5513	2305.968	0.6653	0.5443
1.332	2	52.28	-2.45	95.83	0.0078	1453	14	21.03	554		1.332	2	52.3	9.935	0.0078	1437.979	1.5774	14.736	9.3421	2268.228	0.6802	0.5436
1.342	2	53.28	-2.36	96	0.0074	1460	14	21.02	555.6		1.342	2	53.3	9.944	0.0074	1435.749	1.5692	14.6974	9.3665	2252.906	0.6849	0.5418
1.352	2	54.28	-2.45	96.01	0.007	1405	13	21.02	561.3		1.352	2	54.3	9.935	0.007	1434.243	1.6251	13.6834	8.42	2330.812	0.6525	0.5354
1.362	2	55.28	-2.47	95.92	0.0075	1435	14	21.03	565.7		1.362	2	55.3	9.933	0.0075	1435.82	1.5954	14.7446	9.2421	2290.658	0.6697	0.5305
1.372	2	56.28	-2.4	95.96	0.0076	1411	15	21.03	569.1		1.372	2	56.3	9.94	0.0076	1436.001	1.6182	15.7656	9.7425	2323.773	0.6565	0.5268
1.382	2	57.28	-2.3	95.8	0.0092	1394	15	21.02	568.4		1.382	2	57.3	9.95	0.0092	1440.776	1.6339	15.7198	9.6211	2354.05	0.6474	0.5275
1.392	2	58.28	-2.54	95.56	0.012	1354	15	21.03	565.8		1.392	2	58.3	9.926	0.012	1442.313	1.6796	15.8301	9.4247	2422.552	0.6209	0.5304
1.402	2	59.28	-2.61	95.31	0.014	1340	16	21.03	562.6		1.402	2	59.3	9.919	0.014	1446.551	1.6958	16.9199	9.9774	2453.09	0.6115	0.5339
1.412	2	60.28	-2.56	95.23	0.0158	1358	16	21.03	561		1.412	2	60.3	9.924	0.0158	1448.971	1.6757	16.8953	10.0824	2428.067	0.6231	0.5357
1.422	2	61.28	-2.66	95.24	0.0146	1399	17	21.03	557.9		1.422	2	61.3	9.914	0.0146	1447.299	1.6347	18.0037	11.0136	2365.874	0.6469	0.5392
1.432	2	62.28	-2.65	95.45	0.0119	1432	16	21.03	551.6		1.432	2	62.3	9.915	0.0119	1443.021	1.6012	16.9397	10.5791	2310.625	0.6663	0.5463
1.442	2	63.28	-2.7	95.47	0.0127	1435	17	21.03	544.2		1.442	2	63.3	9.91	0.0127	1441.874	1.5991	18.0248	11.272	2305.656	0.6676	0.5551
1.452	2	64.28	-2.75	95.6	0.0123	1459	18	21.03	533.1		1.452	2	64.3	9.905	0.0123	1438.426	1.5763	19.113	12.1252	2267.391	0.6808	0.5685
1.462	2	65.28	-2.74	95.39	0.0119	1455	17	21.03	522.2		1.462	2	65.3	9.906	0.0119	1442.972	1.58	18.0459	11.4212	2279.948	0.6786	0.5824
1.472	2	66.28	-2.67	95.47	0.013	1427	18	21.03	514.2		1.472	2	66.3	9.913	0.013	1442.31	1.6065	19.0683	11.8692	2317.137	0.6633	0.5929
1.482	2	67.28	-2.78	95.38	0.0129	1365	18	21.03	509.7		1.482	2	67.3	9.902	0.0129	1442.599	1.672	19.1297	11.4411	2412.063	0.6253	0.5991
1.492	2	68.28	-2.77	95.22	0.0157	1362	18	21.03	510.2		1.492	2	68.3	9.903	0.0157	1446.116	1.675	19.1242	11.4172	2422.285	0.6235	0.5984
1.502	2	69.28	-2.82	94.98	0.0137	1399	17	21.03	513.7		1.502	2	69.3	9.898	0.0137	1450.469	1.6373	18.0881	11.0474	2374.888	0.6454	0.5937
1.512	2	70.28	-2.86	95.17	0.0204	1392	16	21.03	520.4		1.512	2	70.3	9.894	0.0204	1445.857	1.6452	17.0441	10.36	2378.703	0.6408	0.5847
1.522	2	71.28	-2.81	95.29	0.0182	1388	16	21.03	527.6		1.522	2	71.3	9.899	0.0182	1444.055	1.6485	17.0192	10.3241	2380.505	0.6389	0.5754
1.532	2	72.28	-2.86	95.3	0.0183	1389	14	21.03	536.4		1.532	2	72.3	9.894	0.0183	1443.115	1.6483	14.9136	9.0479	2378.664	0.639	0.5644
1.542	2	73.28	-2.96	95.28	0.0168	1368	14	21.04	547.1		1.542	2	73.3	9.884	0.0168	1442.078	1.6719	14.9573	8.9463	2411.011	0.6253	0.5516
1.552	2	74.28	-2.91	95.16	0.0145	1415	13	21.03	557.4		1.552	2	74.3	9.889	0.0145	1445.338	1.6225	13.8686	8.5476	2345.086	0.654	0.5397
1.562	2	75.28	-2.96	95.2	0.0142	1391	12	21.03	567.3		1.562	2	75.3	9.884	0.0142	1443.763	1.6479	12.8206	7.78	2379.152	0.6393	0.5288
1.572	2	76.28	-2.94	95.23	0.0148	1416	11	21.03	577.1		1.572	2	76.3	9.886	0.0148	1443.422	1.622	11.7453	7.2412	2341.229	0.6543	0.5183
1.582	2	77.28	-2.9	95.28	0.0142	1406	12	21.03	586		1.582	2	77.3	9.89	0.0142	1442.953	1.6315	12.798	7.8444	2354.166	0.6488	0.5092
1.592	2	78.28	-2.82	95.34	0.0134	1412	11	21.03	595.4		1.592	2	78.3	9.898	0.0134	1442.857	1.6241	11.7041	7.2066	2343.313	0.6531	0.4998
1.602	2	79.28	-2.76	95.51	0.0131	1416	11	21.03	603.6		1.602	2	79.3	9.904	0.0131	1440.163	1.6191	11.6836	7.2163	2331.697	0.656	0.4919
1.612	2	80.28	-2.76	95.64	0.0126	1407	10	21.03	611.4		1.612	2	80.3	9.904	0.0126	1437.446	1.6282	10.6214	6.5235	2340.403	0.6507	0.4845
1.622	2	81.28	-2.8	95.64	0.0136	1413	10	21.03	614.9		1.622	2	81.3	9.9	0.0136	1436.865	1.6227	10.6339	6.553	2331.655	0.6539	0.4813
1.632	2	82.28	-2.75	95.56	0.0121	1398	11	21.04	618.2		1.632	2	82.3	9.905	0.0121	1439.262	1.6372	11.6801	7.1343	2356.348	0.6455	0.4784
1.642	2	83.28	-2.76	95.41	0.0115	1384	11	21.03	612.8		1.642	2	83.3	9.904	0.0115	1442.26	1.6518	11.6836	7.0732	2382.322	0.637	0.4833
1.652	2	84.28	-2.76	95.29	0.0119	1368	10	21.03	605.5		1.652	2	84.3	9.904	0.0119	1444.785	1.6685	10.6214	6.3658	2410.659	0.6273	0.4901
1.662	2	85.28	-2.64	95.37	0.0126	1381	10	21.04	596.1		1.662	2	85.3	9.916	0.0126	1444.849	1.6529	10.5842	6.4034	2388.21	0.6364	0.4991
1.672	2	86.28	-2.59	95.61	0.0102	1379	10	21.04	586.9		1.672	2	86.3	9.921	0.0102	1440.54	1.6542	10.5688	6.3892	2382.884	0.6356	0.5083
1.682	2	87.28	-2.37	95.65	0.0096	1423	9	21.04	579.7		1.682	2	87.3	9.943	0.0096	1442.896	1.6057	9.4511	5.886	2316.84	0.6638	0.5156
1.692	2	88.28	-2.31	95.75	0.0087	1411	9	21.03	573.8		1.692	2	88.3	9.949	0.0087	1441.675	1.6168	9.4346	5.8355	2330.844	0.6573	0.5217
1.702	2	89.28	-2.31	95.82	0.0079	1407	9	21.04	573.9		1.702	2	89.3	9.949	0.0079	1440.214	1.6208	9.4346	5.8209	2334.304	0.655	0.5217
1.712	2	90.28	-2.31	95.92	0.0083	1453	9	21.04	578.2		1.712	2	90.3	9.949	0.0083	1438.132	1.5752	9.4346	5.9896	2265.277	0.6815	0.5171
1.722	2	91.28	-2.31	96.01	0.0076	1495	8	21.04	586		1.722	2	91.3	9.949	0.0076	1436.264	1.535	8.3863	5.4634	2204.665	0.7048	0.5092
1.732	2	92.28	-2.28	96.07	0.0075	1503	8	21.03	596.6		1.732	2	92.3	9.952	0.0075	1435.454	1.527	8.379	5.4871	2192.008	0.7094	0.4986
1.742	2	93.28	-2.08	96.15	0.0067	1497	8	21.04	617.1		1.742	2	93.3	9.972	0.0067	1436.681	1.5296	8.3304	5.4462	2197.528	0.7079	0.4794
1.752	2	94.28	-2.02	96.14	0.0074	1450	8	21.04	625.3		1.752	2	94.3	9.978	0.0074	1437.752	1.5735	8.316	5.285	2262.286	0.6824	0.472
1.762	2	95.28	-2.03	96.04	0.0068	1478	8	21.03	629		1.762	2	95.3	9.977	0.0068	1439.682	1.5467	8.3184	5.378	2226.8	0.698	0.4688
1.772	2	96.28	-1.98	96.03	0.0067	1489	8	21.04	629.8		1.772	2	96.3	9.982	0.0067	1440.612	1.5356	8.3063	5.4093	2212.142	0.7044	0.4681
1.782	2	97.28	-1.97	95.96	0.0066	1497	8	21.04	629.2		1.782	2	97.3	9.983	0.0066	1442.213	1.5279	8.3039	5.4348	2203.56	0.7089	0.4687
1.792	2	98.28	-2	95.97	0.009	1473	8	21.04	627.9		1.792	2	98.3	9.98	0.009	1441.572	1.551	8.3111	5.3585	2235.911	0.6955	0.4698
1.802	2	99.28	-2.09	96	0.0075	1512	7	21.04	624.1		1.802	2	99.3	9.971	0.0075	1439.648	1.5158	7.2913	4.8102	2182.202	0.7159	0.4731
1.812	2	100.28	-2.26	95.69	0.0082	1511	8	21.04	617.9		1.812	2	100.3	9.954	0.0082	1443.655	1.5193	8.3741	5.5118	2193.351	0.7139	0.4786
1.822	2	101.28	-2.2	95.76	0.0096	1559	8	21.04	612.6		1.822	2	101.3	9.96	0.0096	1443.06	1.4748	8.3595	5.6683	2128.195	0.7397	0.4835
1.832	2	102.28	-2.31	95.75	0.0078	1522	8	21.04	604.8		1.832	2	102.3	9.949	0.0078	1441.675	1.5099	8.3863	5.5542	2176.805	0.7193	0.4908
1.842	2	103.28	-2.31	95.69	0.007	1505	8	21.04	600.8		1.842	2	103.3	9.949	0.007	1442.93	1.5256	8.3863	5.4969	2201.398	0.7102	0.4946
1.852	2	104.28	-2.31	95.67	0.0078	1513	8	21.05	599.4		1.852	2	104.3	9.949	0.0078	1443.348	1.5182	8.3863	5.5238	2191.313	0.7145	0.4959
1.862	2	105.28	-2.31	95.63	0.0083	1538	8	21.04	600.8		1.862	2	105.3	9.949	0.0083	1444.186	1.4953	8.3863	5.6084	2159.498	0.7278	0.4945
1.872	2	106.28	-2.36	95.44	0.0104	1512	8	21.05	605.3		1.872	2	106.3	9.944	0.0104	1447.453	1.5199	8.3985	5.5257	2199.99	0.7135	0.4903
1.882	2	107.28	-2.31	95.44	0.0111	1520	8	21.05	613.3		1.882	2	107.3	9.949	0.0111	1448.18	1.5118	8.3863	5.5474	2189.291	0.7182	0.4828
1.892	2	108.28	-2.33	95.52	0.0128	1479	9	21.04	622		1.892	2	108.3	9.947	0.0128	1446.205	1.5504	9.4401	6.0886	2242.258	0.6958	0.475
1.902	2	109.28	-2.31	95.61	0.0156	1477	8	21.04	631.2		1.902	2	109.3	9.949	0.0156	1444.606	1.552	8.3863	5.4034	2242.08	0.6949	0.4669
1.912	2	110.28	-2.31	95.66	0.0135	1438	8	21.05	642.9		1.912	2	110.3	9.949	0.0135	1443.558	1.5898	8.3863	5.2749	2295.026	0.6729	0.457
1.922	2	111.28	-2.31	95.66	0.0164	1420	8	21.05	648.6		1.922	2	111.3	9.949	0.0164	1443.558	1.6077	8.3863	5.2163	2320.833	0.6626	0.4524
1.932	2	112.28	-2.3	95.73	0.0166	1470	8	21.05	649.8		1.932	2	112.3	9.95	0.0166	1442.238	1.5586	8.3839	5.3792	2247.834	0.6911	0.4514
1.942	2	113.28	-2.31	95.76	0.017	1483	8	21.04	650.3		1.942	2	113.3	9.949	0.017	1441.466	1.5463	8.3863	5.4234	2228.981	0.6982	0.451
1.952	2	114.28	-2.37	95.69	0.02	1440	8	21.05	655.7		1.952	2	114.3	9.943	0.02	1442.059	1.5888	8.401	5.2875	2291.186	0.6735	0.4466
1.962	2	115.28	-2.31	95.63	0.0159	1470	8	21.05	664.3		1.962	2	115.3	9.949	0.0159	1444.186	1.5587	8.3863	5.3802	2251.097	0.691	0.4399
1.972	2	116.28	-2.31	95.64	0.0177	1431	7	21.04	673.8		1.972	2	116.3	9.949	0.0177	1443.977	1.5968	7.338	4.5956	2305.683	0.6689	0.4327
1.982	2	117.28	-2.31	95.79	0.0162	1421	8	21.05	682.2		1.982	2	117.3	9.949	0.0162	1440.84	1.6067	8.3863	5.2195	2315.022	0.6632	0.4265
1.992	2	118.28	-2.31	95.8	0.0138	1444	8	21.05	684.8		1.992	2	118.3	9.949	0.0138	1440.631	1.5839	8.3863	5.2946	2281.877	0.6764	0.4246
2.002	2	119.28	-2.31	95.81	0.0111	1418	8	21.05	684.5		2.002	2	119.3	9.949	0.0111	1440.423	1.6097	8.3863	5.2098	2318.679	0.6614	0.4248
2.012	2	120.28	-2.31	95.78	0.0092	1435	8	21.05	680.9		2.012	2	120.3	9.949	0.0092	1441.049	1.5928	8.3863	5.2651	2295.303	0.6712	0.4274
2.022	2	121.28	-2.37	95.8	0.0087	1453	8	21.05	671.5		2.022	2	121.3	9.943	0.0087	1439.762	1.5761	8.401	5.3302	2269.214	0.6809	0.4344
2.032	2	122.28	-2.31	95.78	0.0086	1422	8	21.05	659.8		2.032	2	122.3	9.949	0.0086	1441.049	1.6057	8.3863	5.2228	2313.917	0.6637	0.4434
2.042	2	123.28	-2.31	95.83	0.0094	1405	8	21.05	647.7		2.042	2	123.3	9.949	0.0094	1440.006	1.6228	8.3863	5.1677	2336.885	0.6538	0.453
2.052	2	124.28	-2.36	95.67	0.0093	1365	8	21.05	633.3		2.052	2	124.3	9.944	0.0093	1442.623	1.665	8.3985	5.0443	2401.915	0.6294	0.4651
2.062	2	125.28	-2.36	95.62	0.0102	1388	8	21.05	623.9		2.062	2	125.3	9.944	0.0102	1443.67	1.641	8.3985	5.1179	2369.1	0.6433	0.4733
2.072	2	126.28	-2.32	95.66	0.0089	1418	9	21.05	615.1		2.072	2	126.3	9.948	0.0089	1443.413	1.6099	9.4373	5.8621	2323.725	0.6613	0.4811
2.082	2	127.28	-2.32	95.6	0.0076	1359	9	21.06	607.5		2.082	2	127.3	9.948	0.0076	1444.67	1.6706	9.4373	5.649	2413.493	0.6261	0.4882
2.092	2	128.28	-2.19	95.55	0.0082	1362	8	21.06	607.4		2.092	2	128.3	9.961	0.0082	1447.609	1.6653	8.3571	5.0184	2410.669	0.6292	0.4883
2.102	2	129.28	-2.24	95.48	0.009	1418	8	21.06	575.2		2.102	2	129.3	9.956	0.009	1448.356	1.6086	8.3693	5.2029	2329.81	0.6621	0.5204
2.112	2	130.28	-2.2	95.63	0.0101	1423	8	21.05	541.2		2.112	2	130.3	9.96	0.0101	1445.783	1.6029	8.3595	5.2151	2317.513	0.6653	0.5586
2.122	2	131.28	-2.13	95.72	0.0141	1401	8	21.05	539.2		2.122	2	131.3	9.967	0.0141	1444.911	1.624	8.3425	5.1372	2346.472	0.6532	0.561
2.132	2	132.28	-2	95.88	0.0141	1401	9	21.04	538		2.132	2	132.3	9.98	0.0141	1443.448	1.6218	9.35	5.7651	2341.042	0.6544	0.5625
2.142	2	133.28	-1.86	95.85	0.0122	1402	9	21.06	539.3		2.142	2	133.3	9.994	0.0122	1446.1	1.6186	9.3122	5.7534	2340.594	0.6563	0.5609
2.152	2	134.28	-1.75	95.8	0.0128	1346	9	21.05	540		2.152	2	134.3	10.005	0.0128	1448.74	1.6748	9.2826	5.5424	2426.415	0.6236	0.56
2.162	2	135.28	-1.7	95.93	0.0102	1378	9	21.05	541.7		2.162	2	135.3	10.01	0.0102	1446.741	1.6405	9.2692	5.6503	2373.356	0.6436	0.558
2.172	2	136.28	-1.71	96	0.0075	1334	8	21.05	543.6		2.172	2	136.3	10.009	0.0075	1445.134	1.687	8.2416	4.8854	2437.947	0.6166	0.5558
2.182	2	137.28	-1.67	95.84	0.0075	1384	8	21.05	540		2.182	2	137.3	10.013	0.0075	1449.059	1.6338	8.2321	5.0386	2367.497	0.6474	0.5601
2.192	2	138.28	-1.57	95.71	0.0111	1385	9	21.05	542.4		2.192	2	138.3	10.023	0.0111	1453.24	1.6312	9.2344	5.6613	2370.47	0.649	0.5571
2.202	2	139.28	-1.32	95.85	0.0186	1412	9	21.06	545.4		2.202	2	139.3	10.048	0.0186	1453.914	1.5998	9.1681	5.7307	2326.02	0.6672	0.5535
2.212	2	140.28	-0.87	96.2	0.0122	1409	9	21.05	544.9		2.212	2	140.3	10.093	0.0122	1453.067	1.5957	9.0505	5.6718	2318.636	0.6696	0.5542
2.222	2	141.28	2.9	97.66	0.0002	1385	9	21.06	542.5		2.222	2	141.3	10.47	0.0002	1476.311	1.5615	8.1427	5.2146	2305.292	0.6894	0.557
2.232	2	142.28	2.61	98.09	0.0009	1389	8	21.06	536.1		2.232	2	142.3	10.441	0.0009	1463.35	1.5619	7.2959	4.6711	2285.651	0.6891	0.5648
2.242	2	143.28	2.44	999	0	1404	9	21.06	523.7		2.242	2	143.3	10.424	0	107.2141	1.5499	8.2464	5.3208	166.1658	0.6961	0.5804
2.252	2	144.28	1.86	96.95	0.0002	1363	9	21.06	503.6		2.252	2	144.3	10.366	0.0002	1476.428	1.5992	8.3799	5.24	2361.107	0.6675	0.6076
2.262	2	145.28	1.64	97.69	0.0012	1330	9	21.06	470.8		2.262	2	145.3	10.344	0.0012	1457.928	1.6365	8.4313	5.1519	2385.953	0.6459	0.6571
2.272	2	146.28	1.46	97.1	0.0007	1343	8	21.06	418.9		2.272	2	146.3	10.326	0.0007	1467.595	1.6259	7.5322	4.6327	2386.126	0.652	0.7531
2.282	2	147.28	0.71	96.92	0.003	1322	8	21.06	348.5		2.282	2	147.3	10.251	0.003	1460.672	1.6598	7.6921	4.6342	2424.489	0.6323	0.9333
2.292	2	148.28	1.4	97.23	0.0037	1344	8	21.06	276.8		2.292	2	148.3	10.32	0.0037	1464.037	1.6258	7.5448	4.6407	2380.213	0.6521	1.2205
2.302	2	149.28	3.03	999	0	2792	8	21.06	229.2		2.302	2	149.3	10.483	0	107.821	0.6767	7.2122	10.6578	72.9627	1.2026	1.521
2.312	2	150.28	3.18	999	0	1380	8	21.07	220.6		2.312	2	150.3	10.498	0	107.9752	1.5623	7.1826	4.5976	168.6853	0.6889	1.5906
2.322	3	0.82	4.54	999	0	1292	8	21.06	257.5		2.322	3	0.8	10.634	0	109.374	1.6312	6.9221	4.2436	178.411	0.649	1.3279
2.332	3	1.82	5.01	999	0	1297	8	21.07	328.8		2.332	3	1.8	10.681	0	109.8574	1.6188	6.8352	4.2224	177.8366	0.6562	0.9987
2.342	3	2.82	4.79	99.02	0.0001	1340	8	21.06	411.8		2.342	3	2.8	10.659	0.0001	1474.682	1.5781	6.8757	4.357	2327.178	0.6798	0.7681
2.352	3	3.82	4.27	98.77	0.0002	1352	9	21.06	482.9		2.352	3	3.8	10.607	0.0002	1472.581	1.5738	7.8444	4.9844	2317.527	0.6823	0.638
2.362	3	4.82	1.05	96.99	0.0005	1370	8	21.06	532.4		2.362	3	4.8	10.285	0.0005	1464.057	1.6047	7.619	4.748	2349.357	0.6643	0.5694
2.372	3	5.82	-1	95.82	0.0053	1387	8	21.05	561.4		2.372	3	5.8	10.08	0.0053	1459.178	1.6199	8.0749	4.9848	2363.724	0.6555	0.5352
2.382	3	6.82	-1.98	95.08	0.0023	1406	8	21.05	577.9		2.382	3	6.8	9.982	0.0023	1460.638	1.6165	8.3063	5.1386	2361.055	0.6575	0.5175
2.392	3	7.82	-2.72	94.97	0.0052	1447	8	21.06	589.9		2.392	3	7.8	9.908	0.0052	1452.147	1.5875	8.4872	5.3461	2305.352	0.6743	0.5053
2.402	3	8.82	-2.77	95.56	0.0096	1442	8	21.06	595.6		2.402	3	8.8	9.903	0.0096	1438.971	1.5933	8.4996	5.3347	2292.672	0.671	0.4996
2.412	3	9.82	-2.78	95.64	0.0094	1388	8	21.06	599		2.412	3	9.8	9.902	0.0094	1437.155	1.648	8.5021	5.1591	2368.412	0.6392	0.4963
2.422	3	10.82	-2.75	95.36	0.0099	1368	9	21.06	596.2		2.422	3	10.8	9.905	0.0099	1443.457	1.6684	9.5565	5.7281	2408.2	0.6274	0.499
2.432	3	11.82	-2.76	95.36	0.0096	1348	8	21.07	591.5		2.432	3	11.8	9.904	0.0096	1443.311	1.6898	8.4971	5.0286	2438.875	0.615	0.5036
2.442	3	12.82	-2.76	95.28	0.0081	1379	9	21.06	584.9		2.442	3	12.8	9.904	0.0081	1444.996	1.657	9.5593	5.769	2394.357	0.634	0.5103
2.452	3	13.82	-2.75	95.32	0.0091	1336	9	21.06	578		2.452	3	13.8	9.905	0.0091	1444.299	1.7025	9.5565	5.6131	2458.985	0.6076	0.5174
2.462	3	14.82	-2.8	95.37	0.0075	1387	9	21.06	571.8		2.462	3	14.8	9.9	0.0075	1442.518	1.6494	9.5705	5.8026	2379.223	0.6384	0.5239
2.472	3	15.82	-2.81	95.29	0.0074	1311	9	21.07	565.7		2.472	3	15.8	9.899	0.0074	1444.055	1.731	9.5733	5.5304	2499.69	0.5911	0.5305
2.482	3	16.82	-2.8	95.21	0.0069	1311	9	21.06	559.4		2.482	3	16.8	9.9	0.0069	1445.889	1.7308	9.5705	5.5294	2502.611	0.5912	0.5375
2.492	3	17.82	-2.81	94.75	0.0067	1295	9	21.05	553		2.492	3	17.8	9.899	0.0067	1455.521	1.7489	9.5733	5.4738	2545.603	0.5807	0.5448
2.502	3	18.82	-2.81	94.52	0.007	1292	10	21.07	543.9		2.502	3	18.8	9.899	0.007	1460.46	1.7523	10.637	6.0702	2559.19	0.5787	0.5554
2.512	3	19.82	-2.81	94.49	0.007	1259	9	21.06	535.2		2.512	3	19.8	9.899	0.007	1461.107	1.7902	9.5733	5.3475	2615.746	0.5567	0.5659
2.522	3	20.82	-2.81	94.45	0.0071	1290	9	21.07	528.4		2.522	3	20.8	9.899	0.0071	1461.97	1.7546	9.5733	5.4562	2565.146	0.5774	0.5744
2.532	3	21.82	-2.81	94.48	0.0071	1301	10	21.06	522.6		2.532	3	21.8	9.899	0.0071	1461.323	1.7422	10.637	6.1055	2545.889	0.5846	0.5818
2.542	3	22.82	-2.73	94.48	0.007	1281	10	21.06	518.8		2.542	3	22.8	9.907	0.007	1462.504	1.7634	10.6121	6.018	2578.979	0.5723	0.5869
2.552	3	23.82	-2.73	94.29	0.0073	1262	10	21.06	516.5		2.552	3	23.8	9.907	0.0073	1466.617	1.7853	10.6121	5.9441	2618.362	0.5596	0.5898
2.562	3	24.82	-2.71	94.26	0.0075	1261	10	21.06	515.8		2.562	3	24.8	9.909	0.0075	1467.565	1.7861	10.6059	5.938	2621.234	0.5591	0.5909
2.572	3	25.82	-2.68	94.33	0.0078	1289	10	21.06	514.4		2.572	3	25.8	9.912	0.0078	1466.489	1.7534	10.5966	6.0434	2571.36	0.5781	0.5927
2.582	3	26.82	-2.68	94.41	0.0084	1263	10	21.06	512.5		2.582	3	26.8	9.912	0.0084	1464.755	1.7832	10.5966	5.9423	2612.016	0.5608	0.5953
2.592	3	27.82	-2.67	94.53	0.0082	1278	10	21.06	513.1		2.592	3	27.8	9.913	0.0082	1462.31	1.7658	10.5935	5.9994	2582.093	0.5709	0.5944
2.602	3	28.82	-2.65	94.48	0.0086	1275	10	21.06	515.1		2.602	3	28.8	9.915	0.0086	1463.685	1.7688	10.5873	5.9854	2589.032	0.5691	0.5918
2.612	3	29.82	-2.61	94.43	0.0091	1259	10	21.06	516.4		2.612	3	29.8	9.919	0.0091	1465.357	1.7866	10.575	5.9189	2618.064	0.5588	0.59
2.622	3	30.82	-2.66	94.44	0.0097	1273	10	21.06	512.6		2.622	3	30.8	9.914	0.0097	1464.402	1.7713	10.5904	5.9788	2593.928	0.5677	0.5951
2.632	3	31.82	-2.66	94.31	0.0081	1295	10	21.06	509.9		2.632	3	31.8	9.914	0.0081	1467.219	1.7463	10.5904	6.0646	2562.179	0.5822	0.5989
2.642	3	32.82	-2.64	94.48	0.0096	1301	10	21.06	509.9		2.642	3	32.8	9.916	0.0096	1463.832	1.7392	10.5842	6.0857	2545.889	0.5863	0.5988
2.652	3	33.82	-2.61	94.59	0.009	1300	10	21.06	509.9		2.652	3	33.8	9.919	0.009	1461.901	1.7398	10.575	6.0783	2543.398	0.586	0.5987
2.662	3	34.82	-2.64	94.58	0.0096	1286	9	21.06	510		2.662	3	34.8	9.916	0.0096	1461.674	1.7561	9.5258	5.4244	2566.858	0.5765	0.5987
2.672	3	35.82	-2.64	94.79	0.0085	1339	10	21.06	509.7		2.672	3	35.8	9.916	0.0085	1457.164	1.6974	10.5842	6.2355	2473.408	0.6105	0.5991
2.682	3	36.82	-2.65	94.96	0.0099	1325	10	21.06	507		2.682	3	36.8	9.915	0.0099	1453.386	1.7128	10.5873	6.1813	2489.367	0.6016	0.6028
2.692	3	37.82	-2.58	94.89	0.0077	1323	10	21.06	503.9		2.692	3	37.8	9.922	0.0077	1455.906	1.7138	10.5657	6.1651	2495.112	0.6011	0.6072
2.702	3	38.82	-2.55	94.68	0.0102	1325	9	21.06	502.1		2.702	3	38.8	9.925	0.0102	1460.848	1.7111	9.5008	5.5525	2499.626	0.6026	0.6096
2.712	3	39.82	-2.37	94.88	0.0099	1329	9	21.06	502.8		2.712	3	39.8	9.943	0.0099	1459.202	1.7036	9.4511	5.5476	2485.932	0.6069	0.6086
2.722	3	40.82	-2.48	94.95	0.0091	1326	9	21.06	506		2.722	3	40.8	9.932	0.0091	1456.092	1.7088	9.4814	5.5487	2488.142	0.604	0.6041
2.732	3	41.82	-2.37	95.08	0.0082	1363	9	21.07	508.1		2.732	3	41.8	9.943	0.0082	1454.931	1.6672	9.4511	5.6687	2425.714	0.6281	0.6013
2.742	3	42.82	-2.3	95.3	0.0079	1352	10	21.06	510		2.742	3	42.8	9.95	0.0079	1451.283	1.6777	10.4798	6.2465	2434.823	0.622	0.5987
2.752	3	43.82	-2.37	95.44	0.0073	1379	10	21.06	511.4		2.752	3	43.8	9.943	0.0073	1447.307	1.6505	10.5012	6.3624	2388.78	0.6378	0.5967
2.762	3	44.82	-2.27	95.5	0.0076	1325	9	21.07	511.2		2.762	3	44.8	9.953	0.0076	1447.499	1.7063	9.4236	5.523	2469.817	0.6054	0.5971
2.772	3	45.82	-2.32	95.49	0.0062	1323	9	21.07	506		2.772	3	45.8	9.948	0.0062	1446.982	1.7093	9.4373	5.5212	2473.336	0.6037	0.6041
2.782	3	46.82	-2.37	95.45	0.006	1335	9	21.06	501.4		2.782	3	46.8	9.943	0.006	1447.097	1.6971	9.4511	5.5689	2455.896	0.6107	0.6107
2.792	3	47.82	-2.26	95.42	0.0054	1346	9	21.07	495.3		2.792	3	47.8	9.954	0.0054	1449.33	1.6834	9.4209	5.5963	2439.84	0.6187	0.6194
2.802	3	48.82	-2.33	95.41	0.0056	1271	10	21.06	491.1		2.802	3	48.8	9.947	0.0056	1448.522	1.7677	10.489	5.9336	2560.613	0.5698	0.6255
2.812	3	49.82	-2.51	95.04	0.0054	1291	10	21.07	491.9		2.812	3	49.8	9.929	0.0054	1453.734	1.7482	10.5442	6.0316	2541.345	0.5811	0.6244
2.822	3	50.82	-2.45	94.82	0.0053	1308	9	21.07	495.4		2.822	3	50.8	9.935	0.0053	1459.313	1.7281	9.4731	5.4819	2521.799	0.5928	0.6193
2.832	3	51.82	-2.4	94.59	0.0055	1279	10	21.06	500.2		2.832	3	51.8	9.94	0.0055	1464.996	1.7598	10.5104	5.9724	2578.137	0.5743	0.6124
2.842	3	52.82	-2.4	94.53	0.0057	1314	9	21.07	507.8		2.842	3	52.8	9.94	0.0057	1466.293	1.7206	9.4594	5.4978	2522.856	0.5971	0.6017
2.852	3	53.82	-2.3	94.5	0.0085	1311	9	21.07	511.8		2.852	3	53.8	9.95	0.0085	1468.418	1.7221	9.4319	5.4768	2528.834	0.5962	0.5962
2.862	3	54.82	-2.21	94.72	0.0104	1342	9	21.07	517.4		2.862	3	54.8	9.959	0.0104	1464.99	1.6869	9.4072	5.5767	2471.236	0.6167	0.5887
2.872	3	55.82	-2.24	94.84	0.0085	1351	9	21.06	520.4		2.872	3	55.8	9.956	0.0085	1461.968	1.6778	9.4154	5.6119	2452.825	0.622	0.5848
2.882	3	56.82	-2.24	95.04	0.0101	1345	10	21.07	527.3		2.882	3	56.8	9.956	0.0101	1457.687	1.6842	10.4616	6.2118	2454.973	0.6182	0.5758
2.892	3	57.82	-2.27	95.25	0.0079	1348	9	21.07	528.4		2.892	3	57.8	9.953	0.0079	1452.781	1.6815	9.4236	5.6044	2442.79	0.6198	0.5744
2.902	3	58.82	-2.33	95.37	0.0085	1362	10	21.07	528.1		2.902	3	58.8	9.947	0.0085	1449.366	1.6676	10.489	6.2898	2416.991	0.6278	0.5748
2.912	3	59.82	-2.51	95.55	0.0078	1369	9	21.06	525.3		2.912	3	59.8	9.929	0.0078	1442.959	1.6633	9.4897	5.7055	2400.035	0.6304	0.5784
2.922	3	60.82	-2.59	95.49	0.0088	1428	9	21.07	519.1		2.922	3	60.8	9.921	0.0088	1443.055	1.6043	9.5119	5.9292	2315.024	0.6646	0.5864
2.932	3	61.82	-2.62	95.61	0.0083	1426	9	21.06	513.8		2.932	3	61.8	9.918	0.0083	1440.105	1.6067	9.5202	5.9252	2313.865	0.6631	0.5935
2.942	3	62.82	-2.67	95.64	0.0092	1384	9	21.07	509.5		2.942	3	62.8	9.913	0.0092	1438.752	1.6503	9.5342	5.7772	2374.369	0.6379	0.5994
2.952	3	63.82	-2.72	95.32	0.0081	1386	9	21.07	507.1		2.952	3	63.8	9.908	0.0081	1444.736	1.6491	9.5481	5.79	2382.453	0.6386	0.6026
2.962	3	64.82	-2.82	95.2	0.0105	1357	9	21.07	509		2.962	3	64.8	9.898	0.0105	1445.808	1.6812	9.5761	5.696	2430.669	0.62	0.6
2.972	3	65.82	-2.76	95.22	0.0118	1345	9	21.07	514.2		2.972	3	65.8	9.904	0.0118	1446.262	1.693	9.5593	5.6464	2448.52	0.6131	0.5929
2.982	3	66.82	-2.81	95	0.0109	1383	9	21.06	519.7		2.982	3	66.8	9.899	0.0109	1450.19	1.6537	9.5733	5.7891	2398.138	0.6359	0.5856
2.992	3	67.82	-2.86	94.91	0.0119	1363	9	21.08	528.5		2.992	3	67.8	9.894	0.0119	1451.371	1.6755	9.5873	5.7221	2431.763	0.6233	0.5743
3.002	3	68.82	-2.84	94.83	0.0108	1350	9	21.07	536.8		3.002	3	68.8	9.896	0.0108	1453.37	1.689	9.5817	5.673	2454.741	0.6154	0.564
3.012	3	69.82	-2.83	94.68	0.0109	1321	9	21.07	543.3		3.012	3	69.8	9.897	0.0109	1456.726	1.7203	9.5789	5.5681	2506.027	0.5973	0.5561
3.022	3	70.82	-2.87	94.64	0.0105	1333	9	21.07	543		3.022	3	70.8	9.893	0.0105	1456.995	1.7079	9.5901	5.6152	2488.363	0.6045	0.5564
3.032	3	71.82	-2.83	94.79	0.0119	1343	9	21.07	541.5		3.032	3	71.8	9.897	0.0119	1454.372	1.6964	9.5789	5.6468	2467.125	0.6112	0.5583
3.042	3	72.82	-2.85	94.86	0.0092	1345	9	21.07	537.3		3.042	3	72.8	9.895	0.0092	1452.584	1.6945	9.5845	5.6561	2461.46	0.6122	0.5633
3.052	3	73.82	-2.86	94.83	0.0094	1366	10	21.07	534		3.052	3	73.8	9.894	0.0094	1453.077	1.6723	10.6526	6.3699	2430.011	0.6251	0.5674
3.062	3	74.82	-2.86	94.87	0.0104	1362	9	21.07	533.1		3.062	3	74.8	9.894	0.0104	1452.224	1.6766	9.5873	5.7185	2434.729	0.6226	0.5685
3.072	3	75.82	-2.81	94.93	0.0118	1365	9	21.07	532.3		3.072	3	75.8	9.899	0.0118	1451.679	1.6725	9.5733	5.7238	2427.98	0.625	0.5695
3.082	3	76.82	-2.81	94.9	0.0094	1368	10	21.07	532.3		3.082	3	76.8	9.899	0.0094	1452.318	1.6694	10.637	6.3719	2424.453	0.6268	0.5695
3.092	3	77.82	-2.81	94.93	0.01	1353	10	21.07	529		3.092	3	77.8	9.899	0.01	1451.679	1.6853	10.637	6.3117	2446.484	0.6176	0.5737
3.102	3	78.82	-2.81	95.02	0.0092	1387	10	21.07	520.2		3.102	3	78.8	9.899	0.0092	1449.766	1.6495	10.637	6.4485	2391.419	0.6383	0.585
3.112	3	79.82	-2.81	94.93	0.0084	1351	9	21.07	514.5		3.112	3	79.8	9.899	0.0084	1451.679	1.6874	9.5733	5.6733	2449.587	0.6163	0.5926
3.122	3	80.82	-2.79	94.88	0.0074	1282	10	21.07	509.4		3.122	3	80.8	9.901	0.0074	1453.038	1.7633	10.6307	6.0288	2562.18	0.5723	0.5995
3.132	3	81.82	-2.77	94.83	0.0078	1294	9	21.08	506.1		3.132	3	81.8	9.903	0.0078	1454.399	1.7494	9.5621	5.4661	2544.252	0.5804	0.604
3.142	3	82.82	-2.79	94.66	0.0077	1253	10	21.07	506.7		3.142	3	82.8	9.901	0.0077	1457.744	1.7969	10.6307	5.9161	2619.445	0.5528	0.6032
3.152	3	83.82	-2.76	94.57	0.0066	1275	10	21.08	506.2		3.152	3	83.8	9.904	0.0066	1460.121	1.7708	10.6214	5.9981	2585.597	0.568	0.6039
3.162	3	84.82	-2.75	94.42	0.0065	1243	11	21.07	506.7		3.162	3	84.8	9.905	0.0065	1463.505	1.808	11.6801	6.4603	2646.009	0.5464	0.6032
3.172	3	85.82	-2.76	94.2	0.0063	1210	10	21.08	507.6		3.172	3	85.8	9.904	0.0063	1468.129	1.848	10.6214	5.7475	2713.094	0.5232	0.6019
3.182	3	86.82	-2.76	94.09	0.0042	1237	8	21.08	509.7		3.182	3	86.8	9.904	0.0042	1470.527	1.8153	8.4971	4.6808	2669.473	0.5422	0.599
3.192	3	87.82	-2.42	94.08	0.0035	1227	10	21.08	513.2		3.192	3	87.8	9.938	0.0035	1475.794	1.8211	10.5165	5.7749	2687.514	0.5388	0.5944
3.202	3	88.82	-2.35	94.14	0.0045	1235	10	21.08	515.9		3.202	3	88.8	9.945	0.0045	1475.519	1.8102	10.4951	5.7977	2671.004	0.5451	0.5906
3.212	3	89.82	-2.35	94.18	0.0058	1280	10	21.08	519.4		3.212	3	89.8	9.945	0.0058	1474.644	1.7578	10.4951	5.9706	2592.131	0.5755	0.586
3.222	3	90.82	-2.35	94.53	0.0081	1261	10	21.08	521.5		3.222	3	90.8	9.945	0.0081	1467.031	1.7796	10.4951	5.8973	2610.794	0.5629	0.5833
3.232	3	91.82	-2.36	94.74	0.006	1278	10	21.08	524.2		3.232	3	91.8	9.944	0.006	1462.353	1.7603	10.4982	5.964	2574.119	0.5741	0.5798
3.242	3	92.82	-2.31	94.77	0.0052	1278	9	21.07	531.3		3.242	3	92.8	9.949	0.0052	1462.443	1.7594	9.4346	5.3625	2572.983	0.5746	0.5707
3.252	3	93.82	-2.31	94.65	0.0049	1301	10	21.08	536.1		3.252	3	93.8	9.949	0.0049	1465.027	1.7334	10.4829	6.0475	2539.516	0.5897	0.5649
3.262	3	94.82	-2.3	94.56	0.0079	1283	9	21.08	542.9		3.262	3	94.8	9.95	0.0079	1467.119	1.7535	9.4319	5.3789	2572.604	0.578	0.5565
3.272	3	95.82	-2.02	94.81	0.0097	1260	10	21.07	552.8		3.272	3	95.8	9.978	0.0097	1465.844	1.7749	10.3949	5.8566	2601.751	0.5656	0.5449
3.282	3	96.82	-2.25	95.05	0.0062	1282	10	21.08	565.7		3.282	3	96.8	9.955	0.0062	1457.327	1.7538	10.4646	5.967	2555.804	0.5779	0.5305
3.292	3	97.82	-2.14	94.83	0.0044	1309	10	21.08	573.7		3.292	3	97.8	9.966	0.0044	1463.651	1.7216	10.4312	6.059	2519.81	0.5965	0.5219
3.302	3	98.82	-2.25	94.89	0.007	1340	9	21.07	579.6		3.302	3	98.8	9.955	0.007	1460.748	1.6897	9.4181	5.5739	2468.208	0.615	0.5157
3.312	3	99.82	-2.31	95.22	0.0072	1372	9	21.08	582.9		3.312	3	99.8	9.949	0.0072	1452.833	1.6568	9.4346	5.6945	2407.043	0.6341	0.5123
3.322	3	100.82	-2.43	95.51	0.0051	1399	8	21.08	585.1		3.322	3	100.8	9.937	0.0051	1444.961	1.6309	8.4157	5.1601	2356.585	0.6491	0.5101
3.332	3	101.82	-2.36	95.75	0.0047	1460	9	21.08	588.6		3.332	3	101.8	9.944	0.0047	1440.951	1.5692	9.4483	6.0213	2261.068	0.6849	0.5065
3.342	3	102.82	-2.46	95.79	0.0059	1468	8	21.08	590.8		3.342	3	102.8	9.934	0.0059	1438.668	1.563	8.423	5.389	2248.647	0.6885	0.5044
3.352	3	103.82	-2.48	95.85	0.0058	1484	8	21.08	589.8		3.352	3	103.8	9.932	0.0058	1437.129	1.548	8.4279	5.4443	2224.713	0.6972	0.5053
3.362	3	104.82	-2.47	95.97	0.0045	1455	8	21.08	584.4		3.362	3	104.8	9.933	0.0045	1434.782	1.5757	8.4255	5.347	2260.847	0.6811	0.5108
3.372	3	105.82	-2.48	95.94	0.0051	1412	8	21.08	580.1		3.372	3	105.8	9.932	0.0051	1435.26	1.6185	8.4279	5.2072	2322.995	0.6563	0.5152
3.382	3	106.82	-2.7	95.65	0.0048	1380	9	21.08	577.1		3.382	3	106.8	9.91	0.0048	1438.108	1.655	9.5425	5.766	2380.003	0.6352	0.5183
3.392	3	107.82	-2.76	95.22	0.0038	1420	8	21.08	578.5		3.392	3	107.8	9.904	0.0038	1446.262	1.615	8.4971	5.2613	2335.745	0.6583	0.5169
3.402	3	108.82	-2.8	95.23	0.0059	1348	8	21.08	582.1		3.402	3	108.8	9.9	0.0059	1445.466	1.6905	8.5071	5.0324	2443.503	0.6146	0.5131
3.412	3	109.82	-2.76	95.7	0.0062	1348	9	21.08	585.2		3.412	3	109.8	9.904	0.0062	1436.195	1.6898	9.5593	5.6571	2426.85	0.615	0.5099
3.422	3	110.82	-2.66	96.64	0.0058	1394	8	21.08	588.6		3.422	3	110.8	9.914	0.0058	1418.312	1.6398	8.4723	5.1667	2325.76	0.644	0.5066
3.432	3	111.82	-2.71	95.27	0.0066	1378	9	21.08	589.2		3.432	3	111.8	9.909	0.0066	1445.936	1.6572	9.5453	5.7599	2396.213	0.6339	0.506
3.442	3	112.82	-2.48	95.06	0.0091	1389	8	21.09	586.3		3.442	3	112.8	9.932	0.0091	1453.747	1.642	8.4279	5.1328	2387.021	0.6427	0.5089
3.452	3	113.82	-2.65	95.26	0.01	1355	8	21.08	584.7		3.452	3	113.8	9.915	0.01	1447.023	1.6804	8.4699	5.0403	2431.618	0.6204	0.5105
3.462	3	114.82	-2.64	95.36	0.0082	1374	9	21.09	582.1		3.462	3	114.8	9.916	0.0082	1445.06	1.6602	9.5258	5.7377	2399.106	0.6321	0.5131
3.472	3	115.82	-2.37	95.46	0.0074	1409	9	21.09	578.5		3.472	3	115.8	9.943	0.0074	1446.886	1.6198	9.4511	5.8349	2343.604	0.6556	0.5169
3.482	3	116.82	-2.47	95.64	0.0072	1394	9	21.09	574.8		3.482	3	116.8	9.933	0.0072	1441.655	1.6367	9.4787	5.7914	2359.516	0.6458	0.5207
3.492	3	117.82	-2.42	95.71	0.0077	1399	9	21.09	571.9		3.492	3	117.8	9.938	0.0077	1440.916	1.6307	9.4649	5.8041	2349.752	0.6492	0.5238
3.502	3	118.82	-2.31	95.7	0.0078	1385	9	21.09	573.8		3.502	3	118.8	9.949	0.0078	1442.72	1.6433	9.4346	5.7413	2370.814	0.6419	0.5218
3.512	3	119.82	-2.37	95.63	0.0079	1404	9	21.09	578.9		3.512	3	119.8	9.943	0.0079	1443.315	1.6248	9.4511	5.8167	2345.135	0.6527	0.5164
3.522	3	120.82	-2.42	95.54	0.0071	1372	9	21.09	594.2		3.522	3	120.8	9.938	0.0071	1444.477	1.6586	9.4649	5.7065	2395.847	0.633	0.5009
3.532	3	121.82	-2.36	95.65	0.007	1384	10	21.09	615.6		3.532	3	121.8	9.944	0.007	1443.042	1.6452	10.4982	6.3813	2374.025	0.6409	0.4807
3.542	3	122.82	-2.42	95.57	0.0065	1377	9	21.09	633.5		3.542	3	122.8	9.938	0.0065	1443.847	1.6534	9.4649	5.7245	2387.272	0.6361	0.4649
3.552	3	123.82	-2.37	95.35	0.0062	1346	10	21.09	645.3		3.552	3	123.8	9.943	0.0062	1449.206	1.6853	10.5012	6.2311	2442.329	0.6176	0.455
3.562	3	124.82	-2.37	94.95	0.0008	1323	10	21.09	650.1		3.562	3	124.8	9.943	0.0008	1457.704	1.7102	10.5012	6.1405	2492.917	0.6032	0.4511
3.572	3	125.82	-2.32	94.61	0.0013	1278	9	21.09	650.8		3.572	3	125.8	9.948	0.0013	1465.743	1.7596	9.4373	5.3635	2579.049	0.5745	0.4505
3.582	3	126.82	-2.5	94.66	0.0013	1252	9	21.1	650.6		3.582	3	126.8	9.93	0.0013	1462.014	1.7928	9.487	5.2916	2621.158	0.5552	0.4507
3.592	3	127.82	-2.43	93.85	0.0015	1216	9	21.1	655.5		3.592	3	127.8	9.937	0.0015	1480.703	1.8345	9.4676	5.1608	2716.411	0.531	0.4468
3.602	3	128.82	-1.94	93.52	0.0004	1360	9	21.09	646.9		3.602	3	128.8	9.986	0.0004	1495.358	1.6632	9.3338	5.6119	2487.092	0.6304	0.4537
3.612	3	129.82	-2.26	93.82	0.0002	1428	9	21.09	639.4		3.612	3	129.8	9.954	0.0002	1483.9	1.5989	9.4209	5.892	2372.658	0.6677	0.4599
3.622	3	130.82	-1.94	95.37	0.0044	1441	8	21.1	601.9		3.622	3	130.8	9.986	0.0044	1455.049	1.581	8.2967	5.2477	2300.443	0.6781	0.4935
3.632	3	131.82	-2	96.04	0.0008	1440	8	21.1	608.9		3.632	3	131.8	9.98	0.0008	1440.115	1.5829	8.3111	5.2504	2279.614	0.6769	0.4869
3.642	3	132.82	-2.04	95.88	0.001	1394	9	21.1	616.7		3.642	3	132.8	9.976	0.001	1442.87	1.6296	9.3609	5.7442	2351.326	0.6499	0.4797
3.652	3	133.82	-1.95	95.83	0.001	1412	8	21.1	623.3		3.652	3	133.8	9.985	0.001	1445.216	1.6099	8.2991	5.1549	2326.693	0.6613	0.4738
3.662	3	134.82	-2.1	96.06	0.0027	1401	9	21.09	628.4		3.662	3	134.8	9.97	0.0027	1438.257	1.6235	9.3772	5.776	2334.964	0.6534	0.4693
3.672	3	135.82	-1.96	96.07	0.0066	1406	8	21.09	632.9		3.672	3	135.8	9.984	0.0066	1440.069	1.6161	8.3015	5.1366	2327.34	0.6577	0.4655
3.682	3	136.82	-1.99	95.8	0.0089	1378	8	21.09	633.9		3.682	3	136.8	9.981	0.0089	1445.265	1.6453	8.3087	5.0501	2377.823	0.6408	0.4646
3.692	3	137.82	-1.86	95.64	0.0163	1413	8	21.1	627.4		3.692	3	137.8	9.994	0.0163	1450.508	1.6075	8.2775	5.1494	2331.655	0.6627	0.4702
3.702	3	138.82	-1.79	95.65	0.0171	1430	8	21.09	623.9		3.702	3	138.8	10.001	0.0171	1451.313	1.5894	8.2607	5.1972	2306.781	0.6732	0.4733
3.712	3	139.82	-1.58	95.85	0.0159	1427	8	21.09	623.3		3.712	3	139.8	10.022	0.0159	1450.152	1.5891	8.2108	5.167	2304.396	0.6734	0.4738
3.722	3	140.82	-0.11	96.45	0.0083	1395	9	21.09	619.9		3.722	3	140.8	10.169	0.0083	1458.758	1.5977	8.8565	5.5433	2330.639	0.6684	0.4768
3.732	3	141.82	3.7	999	0	1437	8	21.1	615.5		3.732	3	141.8	10.55	0	108.5101	1.5002	7.0814	4.7203	162.787	0.7249	0.4808
3.742	3	142.82	3.3	999	0	1366	8	21.1	604		3.742	3	142.8	10.51	0	108.0987	1.5743	7.1591	4.5474	170.1803	0.682	0.4915
3.752	3	143.82	2.96	999	0	1416	8	21.09	582.1		3.752	3	143.8	10.476	0	107.749	1.5306	7.226	4.7209	164.9259	0.7073	0.5132
3.762	3	144.82	2.01	96.17	0.0001	1422	8	21.1	547.4		3.762	3	144.8	10.381	0.0001	1495.175	1.5389	7.4178	4.8202	2300.919	0.7025	0.5513
3.772	3	145.82	1.53	96.91	0.001	1402	8	21.1	496.6		3.772	3	145.8	10.333	0.001	1472.567	1.5655	7.5175	4.8021	2305.237	0.6871	0.6175
3.782	3	146.82	0.47	97.13	0.0031	1439	8	21.1	431.4		3.782	3	146.8	10.227	0.0031	1452.905	1.5457	7.7443	5.0103	2245.705	0.6986	0.7276
3.792	3	147.82	0.8	96.89	0.004	1467	8	21.1	361.9		3.792	3	147.8	10.26	0.004	1462.58	1.5143	7.6727	5.0669	2214.75	0.7168	0.893
3.802	3	148.82	2.07	97.9	0.001	1524	8	21.11	300.7		3.802	3	148.8	10.387	0.001	1459.668	1.4445	7.4055	5.1268	2108.469	0.7573	1.1084
3.812	3	149.82	3.37	999	0	2764	8	21.11	264.4		3.812	3	149.8	10.517	0	108.1707	0.6863	7.1454	10.411	74.2406	1.197	1.2878
3.822	4	0.28	3.01	999	0	1444	8	21.11	264.8		3.822	4	0.3	10.481	0	107.8004	1.5035	7.2161	4.7994	162.0826	0.723	1.2857
3.832	4	1.28	3.12	999	0	1437	7	21.12	305.9		3.832	4	1.3	10.492	0	107.9135	1.5085	6.2951	4.1731	162.787	0.7201	1.0865
3.842	4	2.28	3.46	97.11	0.001	1448	8	21.11	378.4		3.842	4	2.3	10.526	0.001	1495.808	1.4934	7.1279	4.7729	2233.863	0.7289	0.8477
3.852	4	3.28	3.18	97.23	0.0023	1452	8	21.11	458.8		3.852	4	3.3	10.498	0.0023	1489.289	1.4937	7.1826	4.8086	2224.553	0.7287	0.6773
3.862	4	4.28	2.76	97.8	0.0001	1525	8	21.11	526.2		3.862	4	4.3	10.456	0.0001	1471.432	1.4341	7.2658	5.0665	2110.152	0.7633	0.5773
3.872	4	5.28	-1.27	95.52	0.005	1528	7	21.11	575.9		3.872	4	5.3	10.053	0.005	1461.617	1.4889	7.1205	4.7826	2176.128	0.7315	0.5196
3.882	4	6.28	-1.94	95.7	0.0059	1543	8	21.11	609.7		3.882	4	6.3	9.986	0.0059	1448.086	1.4853	8.2967	5.586	2150.775	0.7336	0.4862
3.892	4	7.28	-2.65	94.82	0.0073	1534	8	21.1	630.1		3.892	4	7.3	9.915	0.0073	1456.375	1.5041	8.4699	5.6313	2190.503	0.7227	0.4678
3.902	4	8.28	-2.81	95	0.005	1461	7	21.11	641.2		3.902	4	8.3	9.899	0.005	1450.19	1.5753	7.4459	4.7266	2284.502	0.6814	0.4584
3.912	4	9.28	-2.87	95.23	0.0105	1530	7	21.11	643.3		3.912	4	9.3	9.893	0.0105	1444.444	1.5111	7.459	4.9361	2182.687	0.7186	0.4566
3.922	4	10.28	-2.87	95.23	0.0117	1517	8	21.11	639.7		3.922	4	10.3	9.893	0.0117	1444.444	1.5231	8.5245	5.5969	2200.02	0.7117	0.4597
3.932	4	11.28	-3.02	95.11	0.0154	1498	8	21.12	634.9		3.932	4	11.3	9.878	0.0154	1444.786	1.5432	8.5621	5.5483	2229.591	0.7	0.4637
3.942	4	12.28	-2.96	95.26	0.0164	1457	7	21.11	631.4		3.942	4	12.3	9.884	0.0164	1442.498	1.5816	7.4787	4.7285	2281.456	0.6777	0.4667
3.952	4	13.28	-2.8	95.26	0.0234	1481	8	21.13	629		3.952	4	13.3	9.9	0.0234	1444.833	1.5559	8.5071	5.4677	2248.004	0.6926	0.4688
3.962	4	14.28	-2.92	95.24	0.0247	1424	8	21.12	629.5		3.962	4	14.3	9.888	0.0247	1443.504	1.6136	8.537	5.2906	2329.258	0.6592	0.4684
3.972	4	15.28	-2.81	94.96	0.0175	1357	8	21.12	629.1		3.972	4	15.3	9.899	0.0175	1451.041	1.681	8.5096	5.0622	2439.22	0.6201	0.4687
3.982	4	16.28	-2.7	94.42	0.0113	1400	8	21.12	626.5		3.982	4	16.3	9.91	0.0113	1464.244	1.6343	8.4822	5.1901	2393.041	0.6471	0.471
3.992	4	17.28	-2.66	94.75	0.017	1438	9	21.12	624.7		3.992	4	17.3	9.914	0.017	1457.727	1.5955	9.5314	5.9741	2325.734	0.6697	0.4726
4.002	4	18.28	-2.69	95.28	0.026	1405	8	21.12	625.5		4.002	4	18.3	9.911	0.026	1446.017	1.6291	8.4798	5.2053	2355.637	0.6502	0.4718
4.012	4	19.28	-2.68	95.43	0.0183	1431	9	21.12	628.3		4.012	4	19.3	9.912	0.0183	1443.005	1.6027	9.5369	5.9505	2312.732	0.6655	0.4694
4.022	4	20.28	-2.62	95.45	0.0152	1450	9	21.12	630.6		4.022	4	20.3	9.918	0.0152	1443.458	1.583	9.5202	6.014	2285.005	0.6769	0.4674
4.032	4	21.28	-2.57	95.46	0.0154	1399	9	21.12	629.5		4.032	4	21.3	9.923	0.0154	1443.975	1.6332	9.5064	5.8207	2358.3	0.6478	0.4683
4.042	4	22.28	-2.51	95.63	0.0165	1453	9	21.12	633		4.042	4	22.3	9.929	0.0165	1441.283	1.5783	9.4897	6.0125	2274.813	0.6796	0.4653
4.052	4	23.28	-2.49	95.69	0.0163	1352	9	21.12	636.4		4.052	4	23.3	9.931	0.0163	1440.319	1.6809	9.4842	5.6423	2421.051	0.6201	0.4624
4.062	4	24.28	-2.44	95.66	0.0122	1350	9	21.12	642.5		4.062	4	24.3	9.936	0.0122	1441.671	1.6822	9.4704	5.6298	2425.179	0.6194	0.4573
4.072	4	25.28	-2.46	95.28	0.0101	1371	9	21.12	647.5		4.072	4	25.3	9.934	0.0101	1449.373	1.6603	9.4759	5.7072	2406.452	0.6321	0.4532
4.082	4	26.28	-2.47	95.02	0.0085	1379	9	21.12	650.4		4.082	4	26.3	9.933	0.0085	1454.745	1.6522	9.4787	5.7371	2403.474	0.6368	0.4508
4.092	4	27.28	-2.47	95.03	0.009	1437	9	21.11	650.9		4.092	4	27.3	9.933	0.009	1454.532	1.5934	9.4787	5.9488	2317.635	0.6709	0.4505
4.102	4	28.28	-2.42	95.43	0.0126	1436	8	21.12	653.9		4.102	4	28.3	9.938	0.0126	1446.79	1.5936	8.4132	5.2795	2305.568	0.6708	0.448
4.112	4	29.28	-2.42	95.66	0.011	1447	8	21.12	659.4		4.112	4	29.3	9.938	0.011	1441.962	1.5828	8.4132	5.3156	2282.272	0.6771	0.4437
4.122	4	30.28	-2.42	95.83	0.0099	1466	9	21.12	666.6		4.122	4	30.3	9.938	0.0099	1438.414	1.5643	9.4649	6.0505	2250.114	0.6878	0.4382
4.132	4	31.28	-2.37	95.98	0.0097	1464	9	21.12	667.1		4.132	4	31.3	9.943	0.0097	1436.02	1.5654	9.4511	6.0373	2248.007	0.6871	0.4378
4.142	4	32.28	-2.41	95.84	0.0103	1448	8	21.12	670.1		4.142	4	32.3	9.939	0.0103	1438.35	1.5816	8.4108	5.3178	2274.919	0.6777	0.4355
4.152	4	33.28	-2.3	95.99	0.0093	1498	8	21.13	673.3		4.152	4	33.3	9.95	0.0093	1436.823	1.532	8.3839	5.4724	2201.258	0.7065	0.4331
4.162	4	34.28	-2.4	96	0.0093	1457	8	21.13	671.9		4.162	4	34.3	9.94	0.0093	1435.172	1.5727	8.4083	5.3465	2257.08	0.6829	0.4341
4.172	4	35.28	-2.34	95.96	0.0087	1504	7	21.13	670.5		4.172	4	35.3	9.946	0.0087	1436.868	1.527	7.3444	4.8096	2194.151	0.7094	0.4351
4.182	4	36.28	-2.29	96.04	0.0083	1505	8	21.13	663.8		4.182	4	36.3	9.951	0.0083	1435.931	1.5253	8.3814	5.4948	2190.28	0.7104	0.4403
4.192	4	37.28	-2.41	96.02	0.0074	1503	8	21.12	661.5		4.192	4	37.3	9.939	0.0074	1434.613	1.529	8.4108	5.5007	2193.59	0.7082	0.4421
4.202	4	38.28	-2.4	95.93	0.008	1502	8	21.13	662.1		4.202	4	38.3	9.94	0.008	1436.624	1.5298	8.4083	5.4963	2197.786	0.7078	0.4416
4.212	4	39.28	-2.41	95.89	0.0094	1464	8	21.12	657.5		4.212	4	39.3	9.939	0.0094	1437.31	1.5661	8.4108	5.3706	2250.933	0.6867	0.4452
4.222	4	40.28	-2.46	95.91	0.0086	1516	8	21.12	647.2		4.222	4	40.3	9.934	0.0086	1436.172	1.5177	8.423	5.5498	2179.72	0.7148	0.4535
4.232	4	41.28	-2.51	95.87	0.0086	1467	8	21.13	643.4		4.232	4	41.3	9.929	0.0086	1436.279	1.5648	8.4353	5.3908	2247.428	0.6875	0.4566
4.242	4	42.28	-2.51	95.84	0.0082	1473	8	21.12	643		4.242	4	42.3	9.929	0.0082	1436.903	1.559	8.4353	5.4108	2240.118	0.6908	0.4569
4.252	4	43.28	-2.54	96.02	0.0075	1466	8	21.12	646.4		4.252	4	43.3	9.926	0.0075	1432.737	1.5662	8.4427	5.3906	2243.943	0.6867	0.4541
4.262	4	44.28	-2.52	95.84	0.0072	1475	8	21.13	650		4.262	4	44.3	9.928	0.0072	1436.758	1.5572	8.4378	5.4184	2237.365	0.6919	0.4512
4.272	4	45.28	-2.48	95.85	0.0096	1481	8	21.13	650.6		4.272	4	45.3	9.932	0.0096	1437.129	1.5509	8.4279	5.4343	2228.813	0.6955	0.4507
4.282	4	46.28	-2.49	96.02	0.009	1473	8	21.12	649.5		4.282	4	46.3	9.931	0.009	1433.458	1.5587	8.4304	5.4087	2234.298	0.691	0.4516
4.292	4	47.28	-2.41	95.91	0.0093	1473	8	21.13	645.4		4.292	4	47.3	9.939	0.0093	1436.895	1.5574	8.4108	5.4004	2237.851	0.6918	0.455
4.302	4	48.28	-2.26	95.92	0.0108	1415	8	21.13	639.5		4.302	4	48.3	9.954	0.0108	1438.855	1.6119	8.3741	5.1951	2319.323	0.6601	0.4598
4.312	4	49.28	-2.46	96.04	0.0099	1439	9	21.13	629.8		4.312	4	49.3	9.934	0.0099	1433.478	1.5913	9.4759	5.955	2281.027	0.6721	0.4681
4.322	4	50.28	-2.5	96.05	0.0074	1378	8	21.13	623.4		4.322	4	50.3	9.93	0.0074	1432.694	1.6537	8.4329	5.0994	2369.247	0.6359	0.4737
4.332	4	51.28	-2.45	96.01	0.0083	1229	9	21.13	621.5		4.332	4	51.3	9.935	0.0083	1434.243	1.8192	9.4731	5.2073	2609.19	0.5399	0.4754
4.342	4	52.28	-2.46	95.25	0.0034	1326	9	21.13	617.8		4.342	4	52.3	9.934	0.0034	1450.007	1.7084	9.4759	5.5465	2477.247	0.6042	0.4788
4.352	4	53.28	-2.35	94.57	0.0044	1362	9	21.13	614.8		4.352	4	53.3	9.945	0.0044	1466.165	1.668	9.4456	5.663	2445.498	0.6276	0.4814
4.362	4	54.28	-2.16	95.48	0.0118	1375	9	21.13	609.9		4.362	4	54.3	9.964	0.0118	1449.52	1.6512	9.3935	5.689	2393.409	0.6374	0.486
4.372	4	55.28	-2.34	95.86	0.0105	1388	9	21.13	604.5		4.372	4	55.3	9.946	0.0105	1438.947	1.6407	9.4428	5.7554	2360.874	0.6434	0.491
4.382	4	56.28	-2.42	95.62	0.0087	1398	9	21.13	599		4.382	4	56.3	9.938	0.0087	1442.799	1.6318	9.4649	5.8004	2354.295	0.6486	0.4963
4.392	4	57.28	-2.43	95.45	0.0089	1397	9	21.14	592.7		4.392	4	57.3	9.937	0.0089	1446.223	1.6329	9.4676	5.7979	2361.598	0.6479	0.5025
4.402	4	58.28	-2.47	95.32	0.0146	1379	9	21.13	585.9		4.402	4	58.3	9.933	0.0146	1448.381	1.6522	9.4787	5.7371	2392.96	0.6368	0.5093
4.412	4	59.28	-2.53	95.36	0.0171	1379	9	21.13	577.1		4.412	4	59.3	9.927	0.0171	1446.663	1.6532	9.4953	5.7437	2391.565	0.6362	0.5183
4.422	4	60.28	-2.57	95.32	0.017	1353	9	21.14	565.7		4.422	4	60.3	9.923	0.017	1446.923	1.6812	9.5064	5.6545	2432.571	0.62	0.5305
4.432	4	61.28	-2.62	95.26	0.016	1410	10	21.14	557.1		4.432	4	61.3	9.918	0.016	1447.461	1.6228	10.5781	6.5183	2348.978	0.6538	0.5401
4.442	4	62.28	-2.67	95.17	0.021	1398	10	21.14	549.5		4.442	4	62.3	9.913	0.021	1448.634	1.6359	10.5935	6.4758	2369.777	0.6462	0.5488
4.452	4	63.28	-2.72	95.24	0.0323	1333	10	21.14	544.4		4.452	4	63.3	9.908	0.0323	1446.423	1.7053	10.609	6.2212	2466.567	0.606	0.5548
4.462	4	64.28	-2.77	95.22	0.0246	1294	11	21.14	539.5		4.462	4	64.3	9.903	0.0246	1446.116	1.7494	11.687	6.6808	2529.763	0.5804	0.5606
4.472	4	65.28	-2.76	94.57	0.0157	1208	11	21.14	531.7		4.472	4	65.3	9.904	0.0157	1460.121	1.8505	11.6836	6.3139	2701.881	0.5218	0.5703
4.482	4	66.28	-2.7	93.73	0.009	1199	10	21.14	524.1		4.482	4	66.3	9.91	0.009	1479.325	1.8604	10.6028	5.6991	2752.199	0.516	0.58
4.492	4	67.28	-2.81	93.12	0.0058	1318	10	21.14	514.9		4.492	4	67.3	9.899	0.0058	1491.262	1.7233	10.637	6.1725	2569.85	0.5956	0.592
4.502	4	68.28	-2.8	93.69	0.0133	1277	11	21.14	506.1		4.502	4	68.3	9.9	0.0133	1478.715	1.7692	11.6972	6.6115	2616.185	0.5689	0.6041
4.512	4	69.28	-2.8	94.47	0.0093	1318	10	21.14	500.5		4.512	4	69.3	9.9	0.0093	1461.686	1.7231	10.6339	6.1714	2518.628	0.5957	0.6119
4.522	4	70.28	-2.75	94.01	0.0098	1339	10	21.14	499.4		4.522	4	70.3	9.905	0.0098	1472.424	1.6993	10.6183	6.2486	2502.088	0.6095	0.6135
4.532	4	71.28	-2.78	94.45	0.0153	1310	10	21.13	501.6		4.532	4	71.3	9.902	0.0153	1462.413	1.7316	10.6276	6.1374	2532.326	0.5907	0.6104
4.542	4	72.28	-2.77	94.73	0.0146	1346	10	21.14	504.8		4.542	4	72.3	9.903	0.0146	1456.538	1.6921	10.6245	6.2789	2464.6	0.6136	0.6059
4.552	4	73.28	-2.82	94.93	0.0146	1351	10	21.14	506.1		4.552	4	73.3	9.898	0.0146	1451.532	1.6876	10.6401	6.3049	2449.588	0.6162	0.604
4.562	4	74.28	-2.82	95.03	0.0139	1323	10	21.14	508.6		4.562	4	74.3	9.898	0.0139	1449.407	1.7179	10.6401	6.1935	2489.996	0.5986	0.6006
4.572	4	75.28	-2.77	94.97	0.0133	1319	10	21.14	508.6		4.572	4	75.3	9.903	0.0133	1451.414	1.7215	10.6245	6.1718	2498.571	0.5966	0.6005
4.582	4	76.28	-2.82	94.85	0.0123	1328	10	21.14	508.8		4.582	4	76.3	9.898	0.0123	1453.237	1.7125	10.6401	6.2133	2488.615	0.6018	0.6003
4.592	4	77.28	-2.78	94.69	0.013	1293	10	21.15	507.4		4.592	4	77.3	9.902	0.013	1457.248	1.7507	10.6276	6.0707	2551.14	0.5797	0.6022
4.602	4	78.28	-2.76	94.58	0.014	1295	10	21.14	507.5		4.602	4	78.3	9.904	0.014	1459.906	1.748	10.6214	6.0762	2551.982	0.5812	0.6021
4.612	4	79.28	-2.81	94.44	0.0153	1206	10	21.15	507.1		4.612	4	79.3	9.899	0.0153	1462.186	1.8538	10.637	5.7378	2710.671	0.5198	0.6027
4.622	4	80.28	-2.8	94.02	0.0128	1245	10	21.14	507.8		4.622	4	80.3	9.9	0.0128	1471.463	1.8065	10.6339	5.8863	2658.25	0.5473	0.6017
4.632	4	81.28	-2.77	93.58	0.0093	1288	10	21.15	508.9		4.632	4	81.3	9.903	0.0093	1481.598	1.7561	10.6245	6.0499	2601.894	0.5765	0.6002
4.642	4	82.28	-2.81	94.04	0.0108	1335	10	21.14	509.6		4.642	4	82.3	9.899	0.0108	1470.877	1.7047	10.637	6.2399	2507.35	0.6063	0.5992
4.652	4	83.28	-2.81	94.61	0.0166	1313	10	21.15	508.6		4.652	4	83.3	9.899	0.0166	1458.524	1.7288	10.637	6.1528	2521.498	0.5923	0.6006
4.662	4	84.28	-2.81	94.71	0.0116	1290	11	21.16	509.1		4.662	4	84.3	9.899	0.0116	1456.378	1.7546	11.7007	6.6686	2555.333	0.5774	0.5999
4.672	4	85.28	-2.81	94.82	0.0122	1346	10	21.15	512.4		4.672	4	85.3	9.899	0.0122	1454.025	1.6928	10.637	6.2837	2461.342	0.6132	0.5954
4.682	4	86.28	-2.81	94.82	0.013	1315	11	21.16	514.4		4.682	4	86.3	9.899	0.013	1454.025	1.7266	11.7007	6.7768	2510.5	0.5936	0.5927
4.692	4	87.28	-2.81	94.85	0.0118	1331	11	21.15	514.9		4.692	4	87.3	9.899	0.0118	1453.384	1.709	11.7007	6.8464	2483.856	0.6038	0.5921
4.702	4	88.28	-2.81	94.81	0.0097	1321	10	21.15	514.6		4.702	4	88.3	9.899	0.0097	1454.238	1.72	10.637	6.1844	2501.241	0.5975	0.5924
4.712	4	89.28	-2.76	94.71	0.009	1314	10	21.15	511.6		4.712	4	89.3	9.904	0.009	1457.114	1.7268	10.6214	6.1508	2516.175	0.5935	0.5964
4.722	4	90.28	-2.74	94.4	0.0004	1343	10	21.16	508.2		4.722	4	90.3	9.906	0.0004	1464.085	1.6948	10.6152	6.2634	2481.345	0.6121	0.6012
4.732	4	91.28	-2.73	94.58	0.0007	1362	11	21.17	504.6		4.732	4	91.3	9.907	0.0007	1460.348	1.6744	11.6733	6.9718	2445.137	0.6239	0.6061
4.742	4	92.28	-2.73	94.69	0.0049	1307	11	21.16	503.6		4.742	4	92.3	9.907	0.0049	1457.984	1.7341	11.6733	6.7317	2528.247	0.5893	0.6076
4.752	4	93.28	-2.73	94.84	0.0064	1300	10	21.15	504		4.752	4	93.3	9.907	0.0064	1454.772	1.7419	10.6121	6.0923	2534.062	0.5847	0.6069
4.762	4	94.28	-2.71	94.58	0.0007	1335	11	21.16	501.7		4.762	4	94.3	9.909	0.0007	1460.643	1.7029	11.6665	6.8508	2487.391	0.6073	0.6102
4.772	4	95.28	-2.7	94.48	0.0007	1291	11	21.39	498.7		4.772	4	95.3	9.91	0.0007	1462.946	1.7515	11.6631	6.6589	2562.354	0.5792	0.6146
4.782	4	96.28	-2.72	94.45	0.002	1283	11	21.02	496.1		4.782	4	96.3	9.908	0.002	1463.299	1.7609	11.6699	6.6271	2576.783	0.5737	0.6182
4.792	4	97.28	-2.58	94.57	0.0077	1196	10	20.04	494.2		4.792	4	97.3	9.922	0.0077	1462.775	1.8619	10.5657	5.6746	2723.562	0.5151	0.6211
4.802	4	98.28	-2.56	94.03	0.0036	1232	10	19.67	492.9		4.802	4	98.3	9.924	0.0036	1474.811	1.8176	10.5595	5.8095	2680.66	0.5408	0.6229
4.812	4	99.28	-2.51	93.78	0.0005	1228	11	19.62	479.8		4.812	4	99.3	9.929	0.0005	1481.056	1.8215	11.5986	6.3675	2697.76	0.5386	0.6428
4.822	4	100.28	-2.4	93.98	0.0011	1249	10	19.66	455		4.822	4	100.3	9.94	0.0011	1478.287	1.7946	10.5104	5.8568	2652.869	0.5542	0.6839
4.832	4	101.28	-2.25	93.78	0.0029	1246	11	19.7	447.8		4.832	4	101.3	9.955	0.0029	1484.934	1.7954	11.5111	6.4115	2666.018	0.5537	0.6967
4.842	4	102.28	-2.26	94.43	0.0109	1262	11	19.71	449.5		4.842	4	102.3	9.954	0.0109	1470.527	1.7769	11.5144	6.4801	2612.947	0.5645	0.6935
4.852	4	103.28	-2.35	94.5	0.0113	1291	12	19.82	450.1		4.852	4	103.3	9.945	0.0113	1467.68	1.7453	12.5941	7.2159	2561.598	0.5828	0.6926
4.862	4	104.28	-2.09	94.92	0.009	1288	11	19.96	450.9		4.862	4	104.3	9.971	0.009	1462.452	1.7442	11.4577	6.5692	2550.757	0.5834	0.6911
4.872	4	105.28	-2.41	94.97	0.0061	1316	11	20.09	452.2		4.872	4	105.3	9.939	0.0061	1456.691	1.7185	11.5648	6.7294	2503.376	0.5983	0.6888
4.882	4	106.28	-2.13	95.02	0.0037	1306	11	20.19	453.3		4.882	4	106.3	9.967	0.0037	1459.725	1.7247	11.471	6.6509	2517.646	0.5947	0.6868
4.892	4	107.28	-2.16	94.83	0.0051	1302	11	20.27	456		4.892	4	107.3	9.964	0.0051	1463.357	1.7297	11.481	6.6376	2531.173	0.5918	0.6821
4.902	4	108.28	-2.13	94.85	0.0051	1342	11	20.35	457.9		4.902	4	108.3	9.967	0.0051	1463.368	1.6855	11.471	6.8057	2466.519	0.6175	0.6788
4.912	4	109.28	-1.93	95.18	0.002	1319	11	20.45	460.5		4.912	4	109.3	9.987	0.002	1459.234	1.707	11.4046	6.6811	2490.904	0.605	0.6743
4.922	4	110.28	-1.12	100.18	0.0002	1344	11	20.56	462.7		4.922	4	110.3	10.068	0.0002	1370.915	1.6665	11.1413	6.6855	2284.602	0.6285	0.6705
4.932	4	111.28	0.55	99.54	0.0001	1307	11	20.67	463.9		4.932	4	111.3	10.235	0.0001	1405.906	1.6785	10.6244	6.3297	2359.813	0.6215	0.6686
4.942	4	112.28	2.42	107.78	0.0001	1276	11	20.78	464.1		4.942	4	112.3	10.422	0.0001	1286.032	1.6817	10.0845	5.9966	2162.726	0.6197	0.6683
4.952	4	113.28	2.25	100.98	0.0001	1236	10	20.89	461.6		4.952	4	113.3	10.405	0.0001	1401.535	1.729	9.2109	5.3272	2423.32	0.5922	0.6725
4.962	4	114.28	1.9	104.03	0.0001	1179	10	20.98	453.8		4.962	4	114.3	10.37	0.0001	1341.7	1.8019	9.3006	5.1616	2417.578	0.55	0.686
4.972	4	115.28	1.44	95.3	0.0004	1247	10	21.07	436.3		4.972	4	115.3	10.324	0.0004	1505.834	1.7301	9.4205	5.4451	2605.204	0.5916	0.7181
4.982	4	116.28	1.07	95.34	0.0001	1313	10	21.17	401.6		4.982	4	116.3	10.287	0.0001	1499.563	1.6636	9.5184	5.7216	2494.666	0.6302	0.7909
4.992	4	117.28	0.43	95.26	0.0023	1357	9	21.24	341.1		4.992	4	117.3	10.223	0.0023	1491.973	1.6277	8.7221	5.3584	2428.541	0.651	0.9567
5.002	4	118.28	-0.31	95.73	0.0051	1374	9	21.33	254.2		5.002	4	118.3	10.149	0.0051	1471.083	1.6221	8.907	5.491	2386.239	0.6542	1.3482
5.012	4	119.28	0.14	96.2	0.0023	1369	7	21.4	172.6		5.012	4	119.3	10.194	0.0023	1467.607	1.62	6.8397	4.222	2377.576	0.6554	2.1178
5.022	4	120.28	-0.34	95.59	0.0009	3038	6	21.47	122.8		5.022	4	120.3	10.146	0.0009	1473.638	0.5974	5.943	9.9476	880.405	1.2486	3.1488
