Geotek MSCL 7.9 - TN336_BB31-35.raw created at 14:50:23 on 1/24/2016.											Geotek MSCL 7.9 - TN336_BB31-35.out created at 14:51:12 on 1/24/2016.											
																						
																						
Core Depth	Section	Sect Depth	CTD 	Tr. Time 	PW Amp   	A Gamma  	Mag Sus  	Temp     	NC Res   		SB DEPTH	SECT NUM	SECT DEPTH	CT	PWAmp	PWVel	Den1	MS1	MS1	Imp	FP	RES
m		cm	mm	µsec		cps	SI x 10^-5	°C	mV		m		cm	cm		m/s	g/cc	SI x 10^-5	x 10^-8 (m^3/kg)			Ohm.m
																						
0.001	1	0.1	9.27	999	0	8716	20	18.78	213.1		0.001	1	0.1	11.107	0	114.2026	0.7654	15.2833	19.967	87.4139	1.1511	1.5898
0.011	1	1.1	9.59	999	0	4154	25	18.78	237.4		0.011	1	1.1	11.139	0	114.5316	1.6257	18.9486	11.656	186.1888	0.6522	1.4156
0.021	1	2.1	9.69	999	0	4043	29	18.78	289.7		0.021	1	2.1	11.149	0	114.6344	1.6589	21.9244	13.2162	190.1679	0.6329	1.1422
0.031	1	3.1	9.29	999	0	4123	32	18.78	340		0.031	1	3.1	11.109	0	114.2231	1.6397	24.4408	14.9061	187.2862	0.6441	0.9612
0.041	1	4.1	8.5	999	0	4229	35	18.79	375.1		0.041	1	4.1	11.03	0	113.4109	1.6187	27.2805	16.8534	183.5772	0.6562	0.8647
0.051	1	5.1	3.88	91.62	0.001	4151	37	18.79	397.1		0.051	1	5.1	10.568	0.001	1621.107	1.7145	32.5917	19.0098	2779.33	0.6007	0.8131
0.061	1	6.1	3.37	92.55	0.0024	4104	37	18.78	411		0.061	1	6.1	10.517	0.0024	1590.593	1.7382	33.0474	19.0123	2764.793	0.5869	0.7835
0.071	1	7.1	3.15	92.11	0.0012	4215	38	18.79	416.6		0.071	1	7.1	10.495	0.0012	1597.899	1.7057	34.1454	20.0186	2725.508	0.6058	0.7723
0.081	1	8.1	2.93	92.39	0.0029	4112	40	18.78	418.4		0.081	1	8.1	10.473	0.0029	1587.78	1.7429	36.1599	20.7474	2767.285	0.5842	0.7687
0.091	1	9.1	2.86	92.53	0.0055	4120	39	18.78	418.3		0.091	1	9.1	10.466	0.0055	1583.359	1.7414	35.3237	20.2849	2757.228	0.585	0.7689
0.101	1	10.1	2.86	92.15	0.0078	4041	40	18.78	417		0.101	1	10.1	10.466	0.0078	1592.514	1.7678	36.2294	20.4936	2815.316	0.5697	0.7715
0.111	1	11.1	2.86	92.08	0.0097	4015	40	18.78	417.5		0.111	1	11.1	10.466	0.0097	1594.212	1.7767	36.2294	20.3914	2832.438	0.5646	0.7704
0.121	1	12.1	2.85	92.16	0.0086	3978	40	18.78	415.9		0.121	1	12.1	10.465	0.0086	1592.119	1.7896	36.2394	20.2499	2849.265	0.5571	0.7736
0.131	1	13.1	2.9	92.35	0.0057	3949	40	18.78	415.5		0.131	1	13.1	10.47	0.0057	1588.289	1.7988	36.1897	20.1184	2857.069	0.5517	0.7745
0.141	1	14.1	2.96	92.5	0.0025	3928	39	18.78	415.2		0.141	1	14.1	10.476	0.0025	1585.591	1.8052	35.2269	19.5145	2862.249	0.548	0.7749
0.151	1	15.1	2.89	92.19	0.0024	3996	39	18.78	412.4		0.151	1	15.1	10.469	0.0024	1592.001	1.7827	35.2946	19.7983	2838.076	0.5611	0.7808
0.161	1	16.1	2.96	92.29	0.0036	3973	39	18.78	411.3		0.161	1	16.1	10.476	0.0036	1590.647	1.7895	35.2269	19.6858	2846.394	0.5572	0.7828
0.171	1	17.1	3	92.25	0.0031	3991	39	18.81	413.5		0.171	1	17.1	10.48	0.0031	1592.221	1.7826	35.1883	19.7403	2838.228	0.5612	0.7785
0.181	1	18.1	2.94	92.44	0.0042	4030	39	18.81	414.7		0.181	1	18.1	10.474	0.0042	1586.729	1.7702	35.2462	19.9105	2808.875	0.5683	0.7761
0.191	1	19.1	3.05	92.46	0.0047	3934	39	18.82	415.9		0.191	1	19.1	10.485	0.0047	1587.915	1.8015	35.1401	19.5059	2860.639	0.5502	0.7736
0.201	1	20.1	3.09	92.16	0.004	3994	39	18.82	420.6		0.201	1	20.1	10.489	0.004	1595.77	1.78	35.1016	19.72	2840.468	0.5626	0.7643
0.211	1	21.1	3.1	91.84	0.0045	3961	39	18.82	425.3		0.211	1	21.1	10.49	0.0045	1603.73	1.7912	35.092	19.591	2872.647	0.5561	0.7551
0.221	1	22.1	3.15	92.22	0.0066	4026	40	18.81	428.6		0.221	1	22.1	10.495	0.0066	1595.227	1.768	35.9425	20.3289	2820.435	0.5696	0.7489
0.231	1	23.1	3.24	92.4	0.0061	3931	40	18.82	433.1		0.231	1	23.1	10.504	0.0061	1592.239	1.7993	35.8541	19.9267	2864.914	0.5515	0.7405
0.241	1	24.1	3.3	92.26	0.0071	3925	40	18.83	435.5		0.241	1	24.1	10.51	0.0071	1596.536	1.8004	35.7953	19.8822	2874.364	0.5508	0.7361
0.251	1	25.1	3.37	92.02	0.0063	3885	41	18.83	438.6		0.251	1	25.1	10.517	0.0063	1603.446	1.8133	36.6201	20.1954	2907.517	0.5433	0.7306
0.261	1	26.1	3.4	91.8	0.0032	3910	40	18.83	440.6		0.261	1	26.1	10.52	0.0032	1609.301	1.8039	35.6977	19.7888	2903.072	0.5488	0.727
0.271	1	27.1	3.48	91.61	0.003	3847	40	18.83	443		0.271	1	27.1	10.528	0.003	1615.219	1.825	35.6199	19.518	2947.73	0.5366	0.7227
0.281	1	28.1	3.5	91.72	0.0037	3926	40	18.83	447.9		0.281	1	28.1	10.53	0.0037	1612.804	1.7966	35.6004	19.8154	2897.572	0.553	0.7141
0.291	1	29.1	3.51	91.7	0.0027	3884	40	19.24	451.6		0.291	1	29.1	10.531	0.0027	1613.452	1.8112	35.5907	19.65	2922.344	0.5445	0.708
0.301	1	30.1	3.51	91.73	0.0006	3899	41	19.4	448.8		0.301	1	30.1	10.531	0.0006	1612.711	1.8059	36.4805	20.2004	2912.437	0.5476	0.7126
0.311	1	31.1	3.56	95.63	0.0004	4048	39	19.53	414.2		0.311	1	31.1	10.536	0.0004	1522.543	1.7537	34.6537	19.7599	2670.149	0.5779	0.7771
0.321	1	32.1	3.56	105.6	0.0003	4258	38	19.76	394.6		0.321	1	32.1	10.536	0.0003	1330.807	1.6854	33.7651	20.0338	2242.958	0.6175	0.8188
0.331	1	33.1	3.56	91.89	0.0017	4039	38	20	390.5		0.331	1	33.1	10.536	0.0017	1609.533	1.7568	33.7651	19.22	2827.583	0.5761	0.828
0.341	1	34.1	3.51	92.15	0.008	3915	39	20.36	408		0.341	1	34.1	10.531	0.008	1602.404	1.8003	34.701	19.2752	2884.794	0.5509	0.7898
0.351	1	35.1	3.5	92.44	0.0112	3930	39	20.68	422.7		0.351	1	35.1	10.53	0.0112	1595.213	1.7952	34.7104	19.3351	2863.735	0.5538	0.7602
0.361	1	36.1	3.5	92.49	0.0086	4055	39	20.89	416		0.361	1	36.1	10.53	0.0086	1594.005	1.7524	34.7104	19.8075	2793.319	0.5787	0.7734
0.371	1	37.1	3.45	92.64	0.0075	4036	39	21.2	401		0.371	1	37.1	10.525	0.0075	1589.639	1.7596	34.7578	19.753	2797.164	0.5745	0.8047
0.381	1	38.1	3.47	92.39	0.0064	3898	39	21.29	388.3		0.381	1	38.1	10.527	0.0064	1595.967	1.807	34.7388	19.225	2883.859	0.547	0.833
0.391	1	39.1	3.46	92.21	0.0063	3790	40	21.37	376.3		0.391	1	39.1	10.526	0.0063	1600.182	1.846	35.6393	19.3061	2953.959	0.5244	0.8616
0.401	1	40.1	3.49	91.63	0.0095	3785	40	21.47	367.2		0.401	1	40.1	10.529	0.0095	1614.877	1.8473	35.6101	19.2766	2983.198	0.5236	0.8846
0.411	1	41.1	3.5	91.76	0.0115	3849	40	21.54	362.7		0.411	1	41.1	10.53	0.0115	1611.817	1.8239	35.6004	19.5188	2939.804	0.5372	0.8966
0.421	1	42.1	3.56	91.82	0.0031	3822	40	21.6	359.1		0.421	1	42.1	10.536	0.0031	1611.256	1.8326	35.5423	19.3944	2952.795	0.5321	0.9061
0.431	1	43.1	3.93	92.04	0.0029	3922	40	21.65	356.6		0.431	1	43.1	10.573	0.0029	1611.492	1.7907	35.1864	19.6496	2885.689	0.5564	0.9131
0.441	1	44.1	3.88	92.48	0.0022	3879	40	21.69	348.6		0.441	1	44.1	10.568	0.0022	1600	1.8067	35.2342	19.5023	2890.666	0.5472	0.9357
0.451	1	45.1	3.94	92.12	0.0015	3753	40	21.74	347.7		0.451	1	45.1	10.574	0.0015	1609.682	1.8512	35.1769	19.002	2979.882	0.5213	0.9384
0.461	1	46.1	3.95	92.39	0.0015	3829	40	21.81	340.7		0.461	1	46.1	10.575	0.0015	1603.244	1.8233	35.1673	19.2875	2923.232	0.5375	0.9592
0.471	1	47.1	4.34	92.19	0.001	3801	39	21.87	336.2		0.471	1	47.1	10.614	0.001	1614.051	1.8267	33.928	18.5732	2948.414	0.5355	0.9728
0.481	1	48.1	5.78	93.05	0.0009	3806	38	21.94	327.5		0.481	1	48.1	10.758	0.0009	1614.83	1.8005	31.8065	17.6655	2907.47	0.5508	1.0007
0.491	1	49.1	5.73	93.36	0.0008	3732	38	21.99	316.6		0.491	1	49.1	10.753	0.0008	1606.604	1.8281	31.8488	17.4221	2936.985	0.5348	1.0378
0.501	1	50.1	6.23	999	0	3738	37	22.04	300.6		0.501	1	50.1	10.803	0	111.0768	1.8174	30.602	16.8381	201.8737	0.5409	1.0975
0.511	1	51.1	6	999	0	3694	36	22.11	280.2		0.511	1	51.1	10.78	0	110.8403	1.8375	29.9569	16.3034	203.6653	0.5293	1.1841
0.521	1	52.1	6.18	999	0	3745	33	22.15	247.7		0.521	1	52.1	10.798	0	111.0254	1.8157	27.3298	15.0518	201.5913	0.5419	1.352
0.531	1	53.1	6.08	999	0	3725	30	22.18	204.3		0.531	1	53.1	10.788	0	110.9226	1.8247	24.9112	13.6522	202.4002	0.5367	1.6642
0.541	1	54.1	6.64	999	0	5373	26	22.23	146.3		0.541	1	54.1	10.844	0	111.4984	1.3439	21.2726	15.8288	149.8447	0.8156	2.3838
0.551	1	55.1	6.53	999	0	9113	20	22.27	93.3		0.551	1	55.1	10.833	0	111.3853	0.7361	16.411	22.2954	81.9877	1.1682	3.8706
0.561	1	56.1	5.99	999	0	12112	15	22.3	62.8		0.561	1	56.1	10.779	0	110.8301	0.4368	12.4854	28.584	48.41	1.3418	5.9339
