Geotek MSCL 7.9 - TN336_TC42-52.raw created at 14:06:32 on 1/27/2016.											Geotek MSCL 7.9 - TN336_TC42-52.out created at 14:08:26 on 1/27/2016.											
																						
																						
Core Depth	Section	Sect Depth	CTD 	Tr. Time 	PW Amp   	A Gamma  	Mag Sus  	Temp     	NC Res   		SB DEPTH	SECT NUM	SECT DEPTH	CT	PWAmp	PWVel	Den1	MS1	MS1	Imp	FP	RES
m		cm	mm	µsec		cps	SI x 10^-5	°C	mV		m		cm	cm		m/s	g/cc	SI x 10^-5	x 10^-8 (m^3/kg)			Ohm.m
																						
0.003	1	0.3	6.01	999	0	6626	13	19.57	305.8		0.003	1	0.3	10.781	0	110.9373	1.1355	10.8149	9.5247	125.9641	0.9365	1.0257
0.013	1	1.3	6.78	96.9	0.001	5414	16	19.57	379.6		0.013	1	1.3	10.858	0.001	1557.596	1.3494	13.0427	9.6655	2101.834	0.8124	0.8079
0.023	1	2.3	7.23	98.16	0.0032	5268	17	19.57	491.1		0.023	1	2.3	10.903	0.0032	1536.283	1.3748	13.6952	9.9619	2112.023	0.7977	0.6082
0.033	1	3.3	6.87	98.15	0.002	5401	20	19.58	597		0.033	1	3.3	10.867	0.002	1531.426	1.351	16.2648	12.039	2068.972	0.8115	0.4902
0.043	1	4.3	6.2	98.4	0.0001	5457	21	19.58	677.8		0.043	1	4.3	10.8	0.0001	1516.641	1.3477	17.3825	12.8982	2043.932	0.8134	0.4262
0.053	1	5.3	1.14	95.18	0.0022	5441	21	19.58	731.5		0.053	1	5.3	10.294	0.0022	1514.046	1.4174	19.9496	14.0746	2146.027	0.773	0.3917
0.063	1	6.3	0.46	94.83	0.0063	5469	22	19.57	762.8		0.063	1	6.3	10.226	0.0063	1511.827	1.4207	21.3028	14.9947	2147.832	0.7711	0.374
0.073	1	7.3	-0.44	94.53	0.0102	5507	21	19.58	780.5		0.073	1	7.3	10.136	0.0102	1505.198	1.4249	20.86	14.6392	2144.822	0.7686	0.3647
0.083	1	8.3	-0.44	94.74	0.0121	5455	22	19.57	790		0.083	1	8.3	10.136	0.0121	1500.518	1.4364	21.8533	15.214	2155.342	0.762	0.3599
0.093	1	9.3	-0.44	94.93	0.0168	5410	22	19.58	795.3		0.093	1	9.3	10.136	0.0168	1496.309	1.4464	21.8533	15.1085	2164.3	0.7561	0.3572
0.103	1	10.3	-0.39	94.98	0.0161	5466	23	19.57	797.1		0.103	1	10.3	10.141	0.0161	1495.943	1.4333	22.8141	15.9177	2144.07	0.7638	0.3563
0.113	1	11.3	-0.39	95.11	0.0131	5467	23	19.58	800.7		0.113	1	11.3	10.141	0.0131	1493.08	1.433	22.8141	15.9202	2139.636	0.7639	0.3546
0.123	1	12.3	-0.34	95.04	0.0147	5522	23	19.58	803.8		0.123	1	12.3	10.146	0.0147	1495.357	1.4203	22.7817	16.0405	2123.803	0.7713	0.353
0.133	1	13.3	-0.38	95.06	0.0141	5410	23	19.57	807		0.133	1	13.3	10.142	0.0141	1494.328	1.4456	22.8076	15.7776	2160.155	0.7566	0.3515
0.143	1	14.3	-0.3	95.2	0.012	5381	23	19.58	809.6		0.143	1	14.3	10.15	0.012	1492.428	1.4509	22.7558	15.6835	2165.424	0.7535	0.3502
0.153	1	15.3	-0.29	95.23	0.0095	5397	23	19.59	811.4		0.153	1	15.3	10.151	0.0095	1491.917	1.4472	22.7493	15.7195	2159.103	0.7557	0.3494
0.163	1	16.3	-0.19	95.29	0.0086	5416	23	19.58	811.8		0.163	1	16.3	10.161	0.0086	1492.071	1.4415	22.6847	15.7366	2150.859	0.759	0.3492
0.173	1	17.3	-0.21	95.3	0.0075	5437	24	19.58	815.3		0.173	1	17.3	10.159	0.0075	1491.558	1.4371	23.6845	16.4803	2143.57	0.7615	0.3476
0.183	1	18.3	-0.19	95.39	0.0073	5312	23	19.58	822.6		0.183	1	18.3	10.161	0.0073	1489.883	1.465	22.6847	15.4841	2182.721	0.7453	0.3442
0.193	1	19.3	-0.14	95.42	0.007	5465	24	19.58	825.3		0.193	1	19.3	10.166	0.007	1489.96	1.43	23.6374	16.5302	2130.572	0.7657	0.3429
0.203	1	20.3	-0.14	95.43	0.0067	5412	24	19.59	824.3		0.203	1	20.3	10.166	0.0067	1489.742	1.4417	23.6374	16.3954	2147.777	0.7589	0.3434
0.213	1	21.3	-0.1	95.48	0.0066	5432	23	19.59	821.2		0.213	1	21.3	10.17	0.0066	1489.237	1.4367	22.6268	15.7493	2139.573	0.7618	0.3448
0.223	1	22.3	-0.09	95.62	0.006	5374	23	19.59	816.6		0.223	1	22.3	10.171	0.006	1486.336	1.4495	22.6204	15.6054	2154.475	0.7543	0.347
0.233	1	23.3	-0.04	95.69	0.0058	5406	24	19.6	813.9		0.233	1	23.3	10.176	0.0058	1485.547	1.4416	23.5704	16.3498	2141.614	0.7589	0.3482
0.243	1	24.3	0.01	95.71	0.0045	5290	23	19.6	812.3		0.243	1	24.3	10.181	0.0045	1485.844	1.4672	22.5563	15.3738	2180.014	0.7441	0.349
0.253	1	25.3	0.01	95.83	0.0038	5369	23	19.59	807.8		0.253	1	25.3	10.181	0.0038	1483.246	1.4492	22.5563	15.5644	2149.553	0.7545	0.3511
0.263	1	26.3	0.01	95.94	0.003	5372	23	19.6	800.1		0.263	1	26.3	10.181	0.003	1480.873	1.4485	22.5563	15.5717	2145.113	0.7549	0.3549
0.273	1	27.3	0.07	95.87	0.0027	5356	22	19.6	789.8		0.273	1	27.3	10.187	0.0027	1483.256	1.4513	21.5389	14.8411	2152.648	0.7533	0.3599
0.283	1	28.3	0.11	95.86	0.0029	5348	23	19.6	779.9		0.283	1	28.3	10.191	0.0029	1484.054	1.4525	22.4925	15.485	2155.645	0.7526	0.365
0.293	1	29.3	0.16	95.82	0.0028	5366	23	19.6	776.4		0.293	1	29.3	10.196	0.0028	1485.648	1.4478	22.4607	15.514	2150.869	0.7554	0.3668
0.303	1	30.3	0.16	95.91	0.0034	5309	23	19.6	764.9		0.303	1	30.3	10.196	0.0034	1483.702	1.4607	22.4607	15.3768	2167.22	0.7479	0.3729
0.313	1	31.3	0.16	96.06	0.0028	5246	23	19.6	744.7		0.313	1	31.3	10.196	0.0028	1480.471	1.4752	22.4607	15.2258	2183.954	0.7395	0.3841
0.323	1	32.3	0.16	96.06	0.0024	5269	22	19.61	740.9		0.323	1	32.3	10.196	0.0024	1480.471	1.4699	21.4841	14.6164	2176.083	0.7425	0.3863
0.333	1	33.3	0.16	96.07	0.0025	5229	22	19.61	734.4		0.333	1	33.3	10.196	0.0025	1480.255	1.4791	21.4841	14.5249	2189.482	0.7372	0.39
0.343	1	34.3	0.16	96.05	0.0028	5190	23	19.61	726.4		0.343	1	34.3	10.196	0.0028	1480.685	1.4882	22.4607	15.092	2203.627	0.7319	0.3948
0.353	1	35.3	0.16	96.02	0.0032	5219	23	19.61	719.9		0.353	1	35.3	10.196	0.0032	1481.331	1.4815	22.4607	15.1612	2194.526	0.7358	0.3987
0.363	1	36.3	0.16	96.04	0.0039	5156	23	19.63	716.8		0.363	1	36.3	10.196	0.0039	1480.901	1.4963	22.4607	15.0111	2215.835	0.7272	0.4006
0.373	1	37.3	0.16	96.03	0.0035	5217	23	19.63	714.9		0.373	1	37.3	10.196	0.0035	1481.116	1.4819	22.4607	15.1564	2194.898	0.7355	0.4018
0.383	1	38.3	0.16	96.01	0.004	5254	23	19.63	714.2		0.383	1	38.3	10.196	0.004	1481.546	1.4733	22.4607	15.2449	2182.795	0.7405	0.4022
0.393	1	39.3	0.16	95.98	0.004	5291	23	19.64	711.8		0.393	1	39.3	10.196	0.004	1482.192	1.4648	22.4607	15.3336	2171.117	0.7455	0.4037
0.403	1	40.3	0.11	95.95	0.0042	5082	23	19.64	709.1		0.403	1	40.3	10.191	0.0042	1482.112	1.5147	22.4925	14.8492	2245	0.7165	0.4054
0.413	1	41.3	0.11	95.96	0.004	5150	23	19.64	703.9		0.413	1	41.3	10.191	0.004	1481.896	1.4984	22.4925	15.0107	2220.523	0.726	0.4087
0.423	1	42.3	0.11	95.88	0.004	5178	23	19.64	701.2		0.423	1	42.3	10.191	0.004	1483.622	1.4918	22.4925	15.0774	2213.275	0.7298	0.4105
0.433	1	43.3	0.07	95.93	0.0034	5155	23	19.64	698.2		0.433	1	43.3	10.187	0.0034	1481.961	1.4978	22.518	15.0337	2219.732	0.7263	0.4124
0.443	1	44.3	0.06	95.96	0.0039	5144	22	19.64	694.9		0.443	1	44.3	10.186	0.0039	1481.169	1.5006	21.545	14.3577	2222.637	0.7247	0.4146
0.453	1	45.3	0.02	95.98	0.0039	5142	22	19.65	693.3		0.453	1	45.3	10.182	0.0039	1480.157	1.5017	21.5695	14.3637	2222.696	0.7241	0.4156
0.463	1	46.3	0.07	96.02	0.0038	5096	22	19.64	691.1		0.463	1	46.3	10.187	0.0038	1480.023	1.5119	21.5389	14.2458	2237.715	0.7181	0.4171
0.473	1	47.3	0.07	96.03	0.0039	5170	22	19.64	692.3		0.473	1	47.3	10.187	0.0039	1479.808	1.4943	21.5389	14.4143	2211.249	0.7284	0.4163
0.483	1	48.3	0.36	96.11	0.0033	5182	22	19.64	694.1		0.483	1	48.3	10.216	0.0033	1482.298	1.4872	21.363	14.3644	2204.494	0.7325	0.4151
0.493	1	49.3	0.47	96.15	0.0033	5168	22	19.64	693.5		0.493	1	49.3	10.227	0.0033	1483.034	1.4889	21.2968	14.3036	2208.1	0.7315	0.4155
0.503	1	50.3	0.52	96.2	0.003	5151	22	19.65	689.2		0.503	1	50.3	10.232	0.003	1482.684	1.4922	21.2668	14.252	2212.45	0.7296	0.4184
0.513	1	51.3	0.56	96.17	0.0028	5201	22	19.65	688.7		0.513	1	51.3	10.236	0.0028	1483.908	1.4799	21.2428	14.3546	2195.977	0.7367	0.4187
0.523	1	52.3	0.64	96.26	0.0026	5083	22	19.65	690.7		0.523	1	52.3	10.244	0.0026	1483.133	1.5067	21.195	14.0676	2234.567	0.7212	0.4173
0.533	1	53.3	0.69	96.27	0.0022	5245	23	19.65	693		0.533	1	53.3	10.249	0.0022	1483.642	1.4678	22.1272	15.0753	2177.657	0.7437	0.4159
0.543	1	54.3	0.79	96.28	0.0021	5167	23	19.65	687.2		0.543	1	54.3	10.259	0.0021	1484.875	1.4845	22.0651	14.8637	2204.294	0.734	0.4197
0.553	1	55.3	0.85	96.31	0.0019	5178	23	19.65	684.6		0.553	1	55.3	10.265	0.0019	1485.098	1.4811	22.0279	14.8732	2199.506	0.736	0.4215
0.563	1	56.3	0.9	96.44	0.0019	5110	23	19.66	651.1		0.563	1	56.3	10.27	0.0019	1483.032	1.4964	21.997	14.7001	2219.189	0.7272	0.4455
0.573	1	57.3	0.95	96.5	0.0019	5069	23	19.66	644		0.573	1	57.3	10.275	0.0019	1482.47	1.5055	21.9662	14.5909	2231.814	0.7219	0.4509
0.583	1	58.3	1.05	96.54	0.0017	5122	23	19.66	638.5		0.583	1	58.3	10.285	0.0017	1483.057	1.4914	21.9047	14.6878	2211.763	0.7301	0.4552
0.593	1	59.3	1.1	96.58	0.0018	5149	23	19.66	635		0.593	1	59.3	10.29	0.0018	1482.923	1.4843	21.874	14.7374	2201.032	0.7342	0.4579
0.603	1	60.3	1.1	96.57	0.0016	5071	23	19.66	633.2		0.603	1	60.3	10.29	0.0016	1483.136	1.5028	21.874	14.5556	2228.85	0.7234	0.4594
0.613	1	61.3	1.14	96.56	0.0015	5099	23	19.66	631.9		0.613	1	61.3	10.294	0.0015	1483.927	1.4955	21.8495	14.61	2219.235	0.7277	0.4604
0.623	1	62.3	1.19	96.59	0.0013	5099	22	19.67	629.8		0.623	1	62.3	10.299	0.0013	1484.006	1.4948	20.8703	13.9621	2218.275	0.7281	0.4622
0.633	1	63.3	1.2	96.56	0.0012	5176	23	19.67	625		0.633	1	63.3	10.3	0.0012	1484.792	1.4765	21.8129	14.7735	2192.272	0.7387	0.4661
0.643	1	64.3	1.4	96.63	0.0009	5244	23	19.67	619.5		0.643	1	64.3	10.32	0.0009	1486.175	1.4579	21.6913	14.8784	2166.708	0.7495	0.4706
0.653	1	65.3	1.61	96.26	0.0007	5073	23	19.67	616.5		0.653	1	65.3	10.341	0.0007	1497.177	1.4949	21.5647	14.4254	2238.138	0.728	0.4732
0.663	1	66.3	2.07	96.17	0.0015	5082	24	19.67	617.3		0.663	1	66.3	10.387	0.0015	1505.799	1.4861	22.2166	14.9491	2237.84	0.7331	0.4725
0.673	1	67.3	3.04	96.9	0.0007	5188	24	19.67	619.9		0.673	1	67.3	10.484	0.0007	1503.945	1.4478	21.6306	14.9401	2177.446	0.7553	0.4703
0.683	1	68.3	3.16	97.23	0.001	5044	23	19.67	614.9		0.683	1	68.3	10.496	0.001	1498.572	1.4797	20.6613	13.9634	2217.405	0.7368	0.4745
0.693	1	69.3	3.16	999	0	4973	24	19.68	596		0.693	1	69.3	10.496	0.00055	1491.809	1.4967	21.5596	14.4051	161.647	0.727	0.4912
0.703	1	70.3	2.97	97.74	0.0001	4976	23	19.68	563.2		0.703	1	70.3	10.477	0.0001	1485.046	1.4987	20.7691	13.8585	2225.572	0.7258	0.5228
0.713	1	71.3	2.8	97.31	0.0002	5006	23	19.68	515.3		0.713	1	71.3	10.46	0.0002	1491.729	1.4939	20.8663	13.9681	2228.426	0.7286	0.5766
0.723	1	72.3	2.66	96.3	0.001	5005	23	19.69	452.1		0.723	1	72.3	10.446	0.001	1511.503	1.4961	20.9468	14.001	2261.357	0.7273	0.6663
0.733	1	73.3	3.31	97.87	0.0006	5040	23	19.68	367		0.733	1	73.3	10.511	0.0006	1487.125	1.4785	20.5767	13.9171	2198.736	0.7375	0.8386
0.743	1	74.3	4.18	98.37	0.0002	5206	23	19.68	283.7		0.743	1	74.3	10.598	0.0002	1488.901	1.4282	20.0956	14.0707	2126.427	0.7667	1.1143
0.753	1	75.3	6.69	999	0	9786	23	19.69	237.1		0.753	1	75.3	10.849	0	111.637	0.731	18.7933	25.7106	81.6016	1.1711	1.3583
0.763	2	0.2	6.54	999	0	8007	25	19.69	242.4		0.763	2	0.2	10.834	0	111.4827	0.932	20.5084	22.0042	103.9041	1.0545	1.3256
0.773	2	1.2	6.28	999	0	4906	26	19.69	294.1		0.773	2	1.2	10.808	0	111.2151	1.4693	21.4757	14.6161	163.4102	0.7429	1.0708
0.783	2	2.2	6.39	999	0	4790	27	19.69	371.4		0.783	2	2.2	10.819	0	111.3283	1.4959	22.2369	14.865	166.5393	0.7274	0.8278
0.793	2	3.2	5.95	99.39	0.0002	4789	28	19.68	453.5		0.793	2	3.2	10.775	0.0002	1492.382	1.5023	23.3307	15.5302	2241.984	0.7237	0.664
0.803	2	4.2	5.36	999	0	5011	30	19.69	521.6		0.803	2	4.2	10.716	0.00145	1503.532	1.457	25.393	17.4283	160.6607	0.75	0.5689
0.813	2	5.2	0.85	94.96	0.0027	5045	30	19.68	567.6		0.813	2	5.2	10.265	0.0027	1514.682	1.5127	28.7321	18.9935	2291.312	0.7177	0.5184
0.823	2	6.2	0.45	94.94	0.0051	4917	31	19.68	591.9		0.823	2	6.2	10.225	0.0051	1509.225	1.5503	30.026	19.3676	2339.782	0.6959	0.4949
0.833	2	7.2	0.06	95.16	0.0041	4839	31	19.68	605.1		0.833	2	7.2	10.186	0.0041	1498.602	1.5762	30.3589	19.2612	2362.047	0.6809	0.483
0.843	2	8.2	-0.27	95.36	0.005	4811	32	19.68	613		0.843	2	8.2	10.153	0.005	1489.365	1.5886	31.6332	19.9131	2365.952	0.6737	0.4762
0.853	2	9.2	-0.44	95.69	0.0102	4843	32	19.69	621.1		0.853	2	9.2	10.136	0.0102	1479.708	1.5829	31.7867	20.0812	2342.238	0.677	0.4693
0.863	2	10.2	-0.39	95.73	0.0089	4867	33	19.68	629.9		0.863	2	10.2	10.141	0.0089	1479.574	1.5759	32.7333	20.7708	2331.709	0.681	0.4621
0.873	2	11.2	-0.39	95.76	0.0088	4884	34	19.68	631.9		0.873	2	11.2	10.141	0.0088	1478.927	1.5716	33.7253	21.4596	2324.239	0.6835	0.4604
0.883	2	12.2	-0.34	95.76	0.008	4903	34	19.69	632.2		0.883	2	12.2	10.146	0.008	1479.656	1.5659	33.6773	21.506	2317.065	0.6868	0.4602
0.893	2	13.2	-0.31	95.83	0.0066	4919	35	19.68	627.5		0.893	2	13.2	10.149	0.0066	1478.584	1.5614	34.6382	22.1837	2308.695	0.6894	0.464
0.903	2	14.2	-0.26	95.84	0.0063	4883	36	19.68	622.2		0.903	2	14.2	10.154	0.0063	1479.097	1.5698	35.5772	22.6633	2321.909	0.6846	0.4684
0.913	2	15.2	-0.24	95.85	0.0066	4793	37	19.68	619		0.913	2	15.2	10.156	0.0066	1479.173	1.5928	36.5447	22.9437	2356.026	0.6712	0.471
0.923	2	16.2	-0.19	96	0.0052	4906	38	19.68	617		0.923	2	16.2	10.161	0.0052	1476.675	1.5629	37.4791	23.9809	2307.858	0.6886	0.4727
0.933	2	17.2	-0.14	96.06	0.0043	4836	39	19.69	614.3		0.933	2	17.2	10.166	0.0043	1476.114	1.58	38.4108	24.31	2332.325	0.6786	0.475
0.943	2	18.2	-0.14	96.09	0.0034	4769	40	19.69	610.7		0.943	2	18.2	10.166	0.0034	1475.472	1.5975	39.3957	24.6603	2357.119	0.6685	0.4781
0.953	2	19.2	-0.08	96.1	0.0029	4850	41	19.68	607.3		0.953	2	19.2	10.172	0.0029	1476.128	1.5755	40.3118	25.5867	2325.638	0.6813	0.4811
0.963	2	20.2	-0.03	96.14	0.0026	4918	42	19.69	605.6		0.963	2	20.2	10.177	0.0026	1475.997	1.5574	41.2365	26.4781	2298.688	0.6918	0.4826
0.973	2	21.2	0.01	96.16	0.0025	4943	42	19.68	606.2		0.973	2	21.2	10.181	0.0025	1476.149	1.5505	41.1898	26.5659	2288.729	0.6958	0.482
0.983	2	22.2	0.02	96.17	0.0026	4778	43	19.69	607.1		0.983	2	22.2	10.182	0.0026	1476.08	1.5927	42.1585	26.4705	2350.895	0.6713	0.4812
0.993	2	23.2	0.07	96.14	0.0028	4815	45	19.69	609		0.993	2	23.2	10.187	0.0028	1477.448	1.5822	44.0569	27.8449	2337.652	0.6774	0.4796
1.003	2	24.2	0.12	96.13	0.0035	4724	46	19.69	610.9		1.003	2	24.2	10.192	0.0035	1478.387	1.6054	44.9722	28.0137	2373.347	0.6639	0.478
1.013	2	25.2	0.17	96.2	0.0027	4737	47	19.69	612		1.013	2	25.2	10.197	0.0027	1477.612	1.6011	45.8849	28.6579	2365.839	0.6664	0.477
1.023	2	26.2	0.22	96.2	0.0028	4721	47	19.69	611.4		1.023	2	26.2	10.202	0.0028	1478.337	1.6046	45.82	28.5556	2372.12	0.6644	0.4775
1.033	2	27.2	0.21	96.23	0.0025	4813	47	19.69	610.5		1.033	2	27.2	10.201	0.0025	1477.549	1.5806	45.833	28.9977	2335.37	0.6783	0.4783
1.043	2	28.2	0.31	96.37	0.0025	4843	48	19.69	611.1		1.043	2	28.2	10.211	0.0025	1476.005	1.5713	46.676	29.7057	2319.215	0.6837	0.4778
1.053	2	29.2	0.32	96.43	0.0028	4942	50	19.69	611.5		1.053	2	29.2	10.212	0.0028	1474.87	1.546	48.6071	31.4402	2280.173	0.6984	0.4774
1.063	2	30.2	0.35	96.37	0.0023	4773	50	19.69	610.1		1.063	2	30.2	10.215	0.0023	1476.583	1.5888	48.5659	30.5672	2346.031	0.6735	0.4787
1.073	2	31.2	0.33	96.21	0.0024	4708	50	19.7	600.1		1.073	2	31.2	10.213	0.0024	1479.716	1.6063	48.5934	30.2513	2376.899	0.6634	0.4875
1.083	2	32.2	0.32	96.25	0.0024	4814	51	19.7	593.1		1.083	2	32.2	10.212	0.0024	1478.714	1.5786	49.5792	31.4069	2334.311	0.6795	0.4938
1.093	2	33.2	0.32	96.32	0.0022	4766	53	19.71	587.8		1.093	2	33.2	10.212	0.0022	1477.217	1.5911	51.5235	32.3818	2350.44	0.6722	0.4987
1.103	2	34.2	0.27	96.26	0.002	4759	55	19.71	582.4		1.103	2	34.2	10.207	0.002	1477.776	1.5937	53.5434	33.5959	2355.201	0.6707	0.5038
1.113	2	35.2	0.27	96.16	0.0019	4657	57	19.7	579.1		1.113	2	35.2	10.207	0.0019	1479.919	1.621	55.4904	34.2327	2398.917	0.6549	0.507
1.123	2	36.2	0.27	96.13	0.0016	4587	58	19.71	573.2		1.123	2	36.2	10.207	0.0016	1480.563	1.6401	56.464	34.4265	2428.315	0.6438	0.5127
1.133	2	37.2	0.27	96.18	0.0019	4771	61	19.71	566.1		1.133	2	37.2	10.207	0.0019	1479.49	1.5906	59.3845	37.3348	2353.268	0.6725	0.5198
1.143	2	38.2	0.22	96.4	0.0017	4778	62	19.71	561.1		1.143	2	38.2	10.202	0.0017	1474.064	1.5895	60.4434	38.0258	2343.082	0.6731	0.525
1.153	2	39.2	0.17	96.33	0.0016	4784	64	19.72	556.2		1.153	2	39.2	10.197	0.0016	1474.834	1.5887	62.4815	39.3276	2343.137	0.6736	0.5301
1.163	2	40.2	0.17	96.29	0.0016	4799	66	19.73	551.7		1.163	2	40.2	10.197	0.0016	1475.687	1.5848	64.4341	40.6568	2338.715	0.6759	0.5348
1.173	2	41.2	0.14	96.28	0.0016	4704	69	19.72	551.5		1.173	2	41.2	10.194	0.0016	1475.467	1.6104	67.4201	41.8659	2376.069	0.661	0.535
1.183	2	42.2	0.12	96.17	0.0015	4555	71	19.73	552.1		1.183	2	42.2	10.192	0.0015	1477.53	1.6514	69.4136	42.0322	2440.053	0.6372	0.5344
1.193	2	43.2	0.06	95.99	0.0013	4458	73	19.72	551.1		1.193	2	43.2	10.186	0.0013	1480.523	1.6799	71.4903	42.5558	2487.158	0.6207	0.5355
1.203	2	44.2	0.07	95.94	0.0013	4623	76	19.73	546.4		1.203	2	44.2	10.187	0.0013	1481.745	1.6334	74.4072	45.5527	2420.332	0.6477	0.5405
1.213	2	45.2	0.07	96.21	0.0013	4789	80	19.73	541.2		1.213	2	45.2	10.187	0.0013	1475.949	1.589	78.3234	49.291	2345.28	0.6734	0.5463
1.223	2	46.2	0.07	96.26	0.0012	4606	83	19.73	536.1		1.223	2	46.2	10.187	0.0012	1474.881	1.6381	81.2605	49.6065	2416.006	0.645	0.552
1.233	2	47.2	0.07	96.02	0.001	4511	88	19.74	529.8		1.233	2	47.2	10.187	0.001	1480.023	1.6646	86.1557	51.7567	2463.689	0.6296	0.5593
1.243	2	48.2	0.07	95.78	0.001	4507	93	19.74	525.4		1.243	2	48.2	10.187	0.001	1485.202	1.6658	91.0509	54.6602	2473.993	0.6289	0.5644
1.253	2	49.2	0.1	95.59	0.001	4293	98	19.74	521.5		1.253	2	49.2	10.19	0.001	1489.766	1.7279	95.8647	55.4799	2574.193	0.5929	0.5691
1.263	2	50.2	0.11	95.5	0.001	4392	102	19.73	521.5		1.263	2	50.2	10.191	0.001	1491.875	1.6983	99.7492	58.7361	2533.594	0.6101	0.5691
1.273	2	51.2	0.17	95.49	0.0011	4462	105	19.74	520.4		1.273	2	51.2	10.197	0.0011	1492.972	1.677	102.5088	61.1278	2503.651	0.6224	0.5704
1.283	2	52.2	0.22	95.6	0.001	4417	105	19.74	519.3		1.283	2	52.2	10.202	0.001	1491.302	1.6891	102.3639	60.6014	2519.008	0.6154	0.5718
1.293	2	53.2	0.32	95.63	0.001	4497	104	19.74	516.4		1.293	2	53.2	10.212	0.001	1492.11	1.6645	101.1027	60.74	2483.641	0.6296	0.5753
1.303	2	54.2	0.42	95.69	0.001	4488	102	19.74	513.4		1.303	2	54.2	10.222	0.001	1492.263	1.6654	98.8789	59.371	2485.276	0.6291	0.579
1.313	2	55.2	0.41	95.79	0.0008	4438	98	19.73	508.7		1.313	2	55.2	10.221	0.0008	1489.942	1.6799	95.0281	56.5671	2502.978	0.6207	0.5849
1.323	2	56.2	0.52	95.75	0.0011	4490	96	19.75	503.4		1.323	2	56.2	10.232	0.0011	1492.415	1.6632	92.8004	55.7947	2482.254	0.6304	0.5918
1.333	2	57.2	0.52	95.97	0.0011	4515	95	19.75	500.3		1.333	2	57.2	10.232	0.0011	1487.642	1.6562	91.8337	55.4491	2463.804	0.6345	0.5958
1.343	2	58.2	0.52	95.78	0.0009	4412	96	19.74	500.7		1.343	2	58.2	10.232	0.0009	1491.763	1.6856	92.8004	55.0538	2514.562	0.6174	0.5953
1.353	2	59.2	0.47	95.64	0.0011	4432	97	19.75	502.7		1.353	2	59.2	10.227	0.0011	1494.083	1.6807	93.8993	55.8704	2511.05	0.6203	0.5926
1.363	2	60.2	0.41	95.67	0.001	4381	99	19.75	504.7		1.363	2	60.2	10.221	0.001	1492.553	1.6965	95.9978	56.5858	2532.114	0.6111	0.5901
1.373	2	61.2	0.42	95.36	0.001	4298	99	19.74	503.4		1.373	2	61.2	10.222	0.001	1499.487	1.721	95.9706	55.7644	2580.619	0.5969	0.5917
1.383	2	62.2	0.37	95.45	0.0009	4426	99	19.75	500.6		1.383	2	62.2	10.217	0.0009	1496.777	1.684	96.1062	57.0687	2520.637	0.6183	0.5953
1.393	2	63.2	0.31	95.67	0.0011	4484	99	19.76	497.2		1.393	2	63.2	10.211	0.0011	1491.092	1.6684	96.2692	57.7025	2487.699	0.6274	0.5998
1.403	2	64.2	0.25	95.72	0.001	4374	99	19.75	494		1.403	2	64.2	10.205	0.001	1489.129	1.7012	96.4326	56.6845	2533.333	0.6083	0.6042
1.413	2	65.2	0.17	95.5	0.0008	4423	99	19.75	491.1		1.413	2	65.2	10.197	0.0008	1492.754	1.6882	96.6511	57.2504	2520.092	0.6159	0.6081
1.423	2	66.2	0.13	95.53	0.001	4483	98	19.76	487.9		1.423	2	66.2	10.193	0.001	1491.513	1.6716	95.7833	57.3002	2493.221	0.6255	0.6125
1.433	2	67.2	0.12	95.55	0.0013	4369	98	19.76	485.3		1.433	2	67.2	10.192	0.0013	1490.93	1.7049	95.8104	56.1982	2541.834	0.6062	0.6162
1.443	2	68.2	0.01	95.4	0.0013	4389	99	19.77	484.6		1.443	2	68.2	10.181	0.0013	1492.596	1.7008	97.0902	57.0846	2538.624	0.6086	0.6171
1.453	2	69.2	-0.04	95.34	0.0014	4385	99	19.77	483.2		1.453	2	69.2	10.176	0.0014	1493.177	1.7028	97.2279	57.0981	2542.616	0.6074	0.6191
1.463	2	70.2	-0.13	95.33	0.0014	4333	101	19.77	485.8		1.463	2	70.2	10.167	0.0014	1492.075	1.7198	99.4458	57.8249	2566.034	0.5976	0.6154
1.473	2	71.2	-0.14	95.27	0.0013	4290	101	19.77	490.9		1.473	2	71.2	10.166	0.0013	1493.243	1.7329	99.4741	57.403	2587.651	0.59	0.6084
1.483	2	72.2	-0.2	95.21	0.0013	4380	101	19.77	498.8		1.483	2	72.2	10.16	0.0013	1493.678	1.707	99.6438	58.3743	2549.679	0.605	0.5978
1.493	2	73.2	-0.2	95.26	0.0012	4474	101	19.77	504.5		1.493	2	73.2	10.16	0.0012	1492.581	1.6796	99.6438	59.3254	2506.96	0.6209	0.5903
1.503	2	74.2	-0.24	95.36	0.0013	4548	100	19.77	507		1.503	2	74.2	10.156	0.0013	1489.805	1.6593	98.7694	59.5262	2471.973	0.6327	0.5871
1.513	2	75.2	-0.24	95.59	0.0014	4449	100	19.78	500.6		1.513	2	75.2	10.156	0.0014	1484.795	1.6875	98.7694	58.5307	2505.564	0.6163	0.5954
1.523	2	76.2	-0.3	95.47	0.0009	4346	99	19.78	496.7		1.523	2	76.2	10.15	0.0009	1486.526	1.7188	97.9488	56.9879	2554.989	0.5982	0.6006
1.533	2	77.2	-0.25	95.09	0.0007	4212	99	19.77	494.9		1.533	2	77.2	10.155	0.0007	1495.582	1.7588	97.8096	55.6123	2630.393	0.575	0.603
1.543	2	78.2	-0.29	94.92	0.0009	4308	98	19.77	499.1		1.543	2	78.2	10.151	0.0009	1498.745	1.73	96.9318	56.0295	2592.847	0.5916	0.5974
1.553	2	79.2	-0.29	95	0.0009	4397	99	19.77	503.3		1.553	2	79.2	10.151	0.0009	1496.977	1.7035	97.9209	57.4828	2550.073	0.607	0.5919
1.563	2	80.2	-0.28	95.02	0.0009	4330	99	19.78	507.9		1.563	2	80.2	10.152	0.0009	1496.683	1.7232	97.893	56.8083	2579.108	0.5956	0.586
1.573	2	81.2	-0.29	95.09	0.0011	4346	98	19.78	508.5		1.573	2	81.2	10.151	0.0011	1494.993	1.7186	96.9318	56.4017	2569.288	0.5983	0.5852
1.583	2	82.2	-0.28	95.19	0.0011	4366	98	19.78	505.7		1.583	2	82.2	10.152	0.0011	1492.941	1.7125	96.9042	56.5873	2556.619	0.6018	0.5887
1.593	2	83.2	-0.23	95.19	0.0011	4315	99	19.78	499.4		1.593	2	83.2	10.157	0.0011	1493.676	1.7269	97.7539	56.6073	2579.397	0.5935	0.597
1.603	2	84.2	-0.19	95.08	0.001	4294	99	19.78	491.7		1.603	2	84.2	10.161	0.001	1496.686	1.7325	97.6429	56.358	2593.077	0.5902	0.6074
1.613	2	85.2	-0.15	95.14	0.0009	4420	101	19.78	484.7		1.613	2	85.2	10.165	0.0009	1495.953	1.6944	99.5023	58.724	2534.751	0.6123	0.6169
1.623	2	86.2	-0.09	95.51	0.001	4473	105	19.79	474.3		1.623	2	86.2	10.171	0.001	1488.729	1.6781	103.2669	61.5386	2498.214	0.6218	0.6319
1.633	2	87.2	0.02	95.66	0.0009	4421	110	19.78	471.9		1.633	2	87.2	10.182	0.0009	1487.075	1.6913	107.8474	63.7665	2515.068	0.6141	0.6355
1.643	2	88.2	0.11	95.55	0.0008	4448	116	19.78	451.7		1.643	2	88.2	10.191	0.0008	1490.784	1.682	113.4403	67.4447	2507.46	0.6195	0.667
1.653	2	89.2	0.21	95.38	0.0009	4234	120	19.78	451.5		1.653	2	89.2	10.201	0.0009	1495.967	1.744	117.0203	67.097	2609.039	0.5835	0.6673
1.663	2	90.2	0.36	94.55	0.0006	3909	122	19.78	452.8		1.663	2	90.2	10.216	0.0006	1516.627	1.8469	118.4674	64.143	2801.097	0.5238	0.6651
1.673	2	91.2	0.52	93.37	0.0003	3875	118	19.78	454.1		1.673	2	91.2	10.232	0.0003	1546.086	1.8557	114.0671	61.4672	2869.134	0.5187	0.663
1.683	2	92.2	0.6	94.15	0.0002	4226	110	19.77	455.5		1.683	2	92.2	10.24	0.0002	1529.271	1.7399	106.0943	60.9786	2660.721	0.5859	0.6607
1.693	2	93.2	0.7	94.68	0.0007	4284	99	19.86	457.2		1.693	2	93.2	10.25	0.0007	1518.744	1.7205	95.2165	55.3419	2613.018	0.5972	0.6581
1.703	2	94.2	0.75	95.66	0.0005	4554	88	19.4	458.7		1.703	2	94.2	10.255	0.0005	1497.736	1.6416	84.5179	51.4859	2458.644	0.6429	0.6557
1.713	2	95.2	0.95	96.13	0.0007	4482	81	19.59	456.8		1.713	2	95.2	10.275	0.0007	1490.427	1.6585	77.3591	46.6427	2471.944	0.6331	0.6587
1.723	2	96.2	1.14	96.22	0.0004	4568	75	20.69	456		1.723	2	96.2	10.294	0.0004	1491.236	1.6315	71.2484	43.6708	2432.934	0.6488	0.6599
1.733	2	97.2	1.16	96	0.0009	4598	73	22.34	453.6		1.733	2	97.2	10.296	0.0009	1496.294	1.6229	69.3097	42.7062	2428.4	0.6537	0.6638
1.743	2	98.2	1.65	96.28	0.0022	4615	72	22.83	448.5		1.743	2	98.2	10.345	0.0022	1497.322	1.6106	67.4316	41.8662	2411.657	0.6609	0.6722
1.753	2	99.2	3.68	96.77	0.0004	4521	74	23.01	440.8		1.753	2	99.2	10.548	0.0004	1515.953	1.6049	65.5387	40.8359	2432.994	0.6642	0.6851
1.763	2	100.2	3.33	96.14	0.0003	4445	76	23.11	428.5		1.763	2	100.2	10.513	0.0003	1524.728	1.6313	67.9554	41.6573	2487.283	0.6489	0.7069
1.773	2	101.2	3.33	96.18	0.0001	4161	78	23.16	406.6		1.773	2	101.2	10.513	0.0001	1523.844	1.7144	69.7437	40.6823	2612.406	0.6007	0.749
1.783	2	102.2	3.32	95.53	0.0004	4214	78	23.15	367.1		1.783	2	102.2	10.512	0.0004	1538.191	1.6984	69.7628	41.0745	2612.532	0.61	0.8383
1.793	2	103.2	3.41	96.18	0.0004	4506	75	23.16	311.7		1.793	2	103.2	10.521	0.0004	1525.004	1.6132	66.9149	41.4808	2460.068	0.6594	1.0042
1.803	2	104.2	2.78	115.53	0.0001	5349	71	23.16	267.3		1.803	2	104.2	10.458	0.0001	1183.835	1.4152	64.4488	45.5393	1675.403	0.7742	1.1898
1.813	2	105.2	3.52	999	0	4855	63	23.16	230.5		1.813	2	105.2	10.532	0	108.3751	1.5204	56.0401	36.8587	164.7738	0.7132	1.4012
1.823	2	106.2	3.22	999	0	4722	54	23.18	184.4		1.823	2	106.2	10.502	0	108.0664	1.5585	48.4295	31.0746	168.4206	0.6911	1.7928
1.833	2	107.2	2.66	999	0	5583	42	23.18	133.2		1.833	2	107.2	10.446	0	107.4902	1.3667	38.2507	27.9885	146.9019	0.8024	2.5655
